Sensor string: E
Serial number: 1970-01-0000
Firmware version: 2,015
Hardware version: 2,2
Calibration quality: 5
ax	ay	az	gx	gy	gz	mx	my	mz

-0.7076	0.394548	0.585844	0.49	0.14	-0.07	0.2112	-0.0326	-0.4748	Reference
-0.709186	0.39406	0.583282	0.35	-0.28	0.14	0.2172	-0.0433	-0.4687	
-0.705892	0.395768	0.587186	1.19	-0.91	-0.49	0.2186	-0.0479	-0.4748	
-0.706868	0.396012	0.580232	-0.14	-0.49	0.35	0.207	-0.0401	-0.4748	
-0.705526	0.39528	0.588284	0.42	0.56	0	0.2171	-0.0387	-0.4671	
-0.710284	0.39833	0.585478	0.28	0.21	0.14	0.2201	-0.0434	-0.4656	
-0.710406	0.396988	0.58255	0	-0.14	0.28	0.2157	-0.0418	-0.4702	
-0.710162	0.39772	0.581208	0.35	0.14	0.07	0.217	-0.0311	-0.4671	
-0.707966	0.398086	0.584258	0.49	0.28	-0.07	0.2083	-0.034	-0.4733	
-0.707356	0.396866	0.58743	0.49	0.07	-0.21	0.2127	-0.0372	-0.4702	
-0.707722	0.397842	0.586088	0.63	-0.14	-0.42	0.2129	-0.054	-0.4718	
-0.707112	0.397964	0.585722	0.49	0.07	-0.42	0.2113	-0.0417	-0.4733	
-0.706624	0.396378	0.58438	0.56	0.35	-0.21	0.2086	-0.0509	-0.4733	
-0.70882	0.396134	0.581818	0.98	0.7	-0.14	0.2071	-0.0493	-0.4733	
-0.708454	0.397476	0.582794	0.84	0.7	-0.07	0.2142	-0.0356	-0.4687	
-0.709552	0.396012	0.582672	0.35	0.07	0.07	0.2012	-0.0401	-0.4688	
-0.709308	0.396378	0.58377	0.14	-0.35	-0.07	0.2085	-0.0463	-0.4733	
-0.708332	0.397842	0.584258	-0.07	-0.28	0	0.207	-0.0417	-0.4748	
-0.708576	0.39772	0.584258	0.28	0.07	-0.07	0.223	-0.0449	-0.4732	
-0.709186	0.39833	0.58377	0.35	0.14	-0.21	0.2085	-0.0447	-0.4657	
-0.70821	0.39894	0.58316	0.28	0.14	-0.21	0.2142	-0.0402	-0.4702	
-0.708088	0.398452	0.583892	0.21	0.07	-0.14	0.2071	-0.057	-0.4825	
-0.707844	0.398818	0.58377	0	0	-0.14	0.2273	-0.0435	-0.4778	
-0.708088	0.396988	0.584136	-0.14	-0.21	-0.21	0.2142	-0.0418	-0.4717	
-0.709064	0.396988	0.583526	-0.21	-0.28	-0.14	0.2114	-0.0448	-0.4687	
-0.710284	0.397598	0.585234	0	-0.07	-0.21	0.2158	-0.0418	-0.461	
-0.710406	0.397598	0.584014	0.21	0.35	-0.14	0.2157	-0.0372	-0.4656	
-0.711138	0.398208	0.583282	0.21	0.07	-0.21	0.2141	-0.0326	-0.4763	
-0.710406	0.396866	0.583038	0.14	-0.07	-0.21	0.2201	-0.0403	-0.4625	
-0.71004	0.39833	0.584624	0.07	0	-0.14	0.2099	-0.0371	-0.4626	
-0.709186	0.39833	0.584014	0.07	0	-0.14	0.2084	-0.0417	-0.4794	
-0.70943	0.397964	0.583648	0.28	0	-0.21	0.2187	-0.0449	-0.4641	
-0.70821	0.396988	0.583892	0.35	0.07	-0.21	0.2171	-0.0388	-0.4763	
-0.708332	0.397232	0.583892	0.21	-0.07	-0.21	0.2156	-0.0372	-0.4748	
-0.707356	0.396378	0.582672	0.07	-0.21	-0.14	0.2143	-0.0417	-0.4671	
-0.707112	0.3965	0.584136	0.07	-0.21	-0.21	0.2128	-0.0433	-0.4794	
-0.706868	0.396378	0.583892	0.21	-0.14	-0.21	0.2113	-0.0387	-0.4702	
-0.7076	0.395036	0.585722	0.28	0.14	-0.14	0.2085	-0.0463	-0.4779	
-0.709186	0.391742	0.568398	-0.49	1.4	0	0.2201	-0.0495	-0.4687	
-0.707844	0.393572	0.589626	0.49	3.22	-0.28	0.2071	-0.0462	-0.4687	
-0.710284	0.399184	0.587186	0.77	1.05	-0.07	0.2114	-0.0494	-0.4733	
-0.713456	0.397964	0.582916	-0.28	-0.21	0.42	0.2172	-0.0418	-0.4656	
-0.714066	0.397476	0.58194	-0.07	-0.35	0	0.2085	-0.0463	-0.4718	
-0.71248	0.40077	0.580598	0	-0.35	0	0.21	-0.0478	-0.4703	
-0.711748	0.39955	0.582916	-0.28	-0.21	-0.07	0.2201	-0.0449	-0.4717	
-0.709796	0.39772	0.584746	-0.35	-0.7	-0.28	0.2128	-0.0464	-0.4809	
-0.707844	0.396134	0.584868	-0.14	-0.84	-0.28	0.2085	-0.0447	-0.4733	
-0.707234	0.396988	0.582794	0.56	-0.14	-0.35	0.2056	-0.0401	-0.4657	
-0.706502	0.3965	0.583892	0.98	0.7	-0.28	0.2113	-0.0448	-0.4779	
-0.707722	0.397476	0.582916	0.77	0.63	-0.21	0.2214	-0.0404	-0.4793	
-0.709918	0.39711	0.583038	0	-0.14	0	0.2158	-0.054	-0.4794	
-0.707112	0.395768	0.581818	-0.42	-0.63	0	0.2172	-0.0495	-0.4748	
-0.70882	0.398086	0.583892	-0.28	-0.35	0	0.2128	-0.0433	-0.4687	
-0.71065	0.396378	0.583038	0.21	0.07	0	0.2114	-0.0478	-0.4733	
-0.711382	0.396988	0.583404	0.28	0.07	-0.07	0.2114	-0.0478	-0.4733	
-0.710528	0.397842	0.583526	0.35	0.21	-0.07	0.213	-0.0509	-0.4641	
-0.71187	0.39894	0.58438	0.14	0	-0.07	0.2171	-0.0418	-0.4732	
-0.70943	0.398452	0.583648	-0.14	-0.35	-0.07	0.2158	-0.0463	-0.4656	
-0.708332	0.397476	0.58377	-0.21	-0.49	-0.14	0.2098	-0.0371	-0.4717	
-0.708942	0.396744	0.581208	0.21	-0.21	-0.07	0.2128	-0.0448	-0.4687	
-0.709064	0.397232	0.582184	0.63	0.28	-0.14	0.2129	-0.0479	-0.4718	
-0.709674	0.397842	0.583038	0.56	0.28	0	0.22	-0.0449	-0.4778	
-0.709552	0.396622	0.582916	0.28	0	-0.07	0.2128	-0.0448	-0.4733	
-0.708332	0.39772	0.582916	0.21	0.07	0	0.21	-0.0463	-0.4702	
-0.709552	0.397842	0.583282	0.21	0	-0.14	0.21	-0.0447	-0.4641	
-0.708698	0.397598	0.583282	0.21	0.07	-0.07	0.2156	-0.0372	-0.4748	
-0.708942	0.39833	0.584014	0.28	0.07	-0.07	0.2157	-0.051	-0.4855	
-0.710284	0.398696	0.584258	0.42	0.21	0	0.2085	-0.0448	-0.4748	
-0.710772	0.399184	0.584014	0.14	0.07	0.07	0.2143	-0.0448	-0.4748	
-0.710894	0.399062	0.581208	-0.07	-0.28	0.14	0.2157	-0.0464	-0.4778	
-0.709918	0.397598	0.581696	0	-0.28	-0.07	0.2243	-0.0389	-0.4778	
-0.708332	0.397598	0.58255	0.28	0	-0.14	0.2128	-0.0433	-0.4794	
-0.70882	0.396744	0.584014	0.42	0.07	-0.21	0.2027	-0.0493	-0.4764	
-0.707722	0.398208	0.584502	0.56	0.28	-0.14	0.2128	-0.0463	-0.4718	
-0.7076	0.398086	0.582672	0.28	0	-0.07	0.2084	-0.0432	-0.4794	
-0.707844	0.397842	0.584624	0.07	-0.07	0	0.22	-0.0418	-0.4747	
-0.709918	0.397964	0.581574	-0.14	-0.14	0.21	0.2215	-0.0464	-0.4702	
-0.711138	0.396866	0.57889	0.21	0.07	0	0.2158	-0.051	-0.4748	
-0.711748	0.39833	0.581086	0.28	0	-0.21	0.2186	-0.0449	-0.4717	
-0.710162	0.398574	0.584136	0.07	-0.14	-0.21	0.2113	-0.0448	-0.4779	
-0.707966	0.398086	0.584746	-0.07	-0.7	-0.21	0.2128	-0.0433	-0.4779	
-0.705892	0.397964	0.583648	-0.14	-0.77	-0.28	0.2172	-0.0479	-0.4717	
-0.706502	0.397232	0.58377	-0.07	-0.35	-0.14	0.2172	-0.0479	-0.4794	
-0.707234	0.39711	0.584502	0.14	0.14	0.07	0.2114	-0.0478	-0.4687	
-0.708088	0.398574	0.583038	0.21	0.21	0.14	0.2187	-0.0541	-0.4778	
-0.709918	0.400038	0.582306	-0.14	-0.07	0.07	0.2187	-0.0479	-0.4732	
-0.710284	0.398818	0.583404	-0.35	-0.42	0.07	0.2244	-0.0388	-0.4671	
-0.710528	0.397964	0.583892	-0.35	-0.42	-0.07	0.2114	-0.0417	-0.4641	
-0.709064	0.399184	0.583526	-0.07	-0.21	-0.07	0.2143	-0.0479	-0.4748	
-0.71004	0.399184	0.58499	0.28	0.07	-0.14	0.2201	-0.0495	-0.4732	
-0.709796	0.39955	0.581696	0.42	0.28	-0.14	0.2215	-0.048	-0.4748	
-0.70882	0.398086	0.583038	0.42	0.35	-0.21	0.2098	-0.0371	-0.4733	
-0.70821	0.398086	0.583526	0.21	0	-0.21	0.2071	-0.0508	-0.4733	
-0.707844	0.397232	0.583648	-0.07	-0.28	-0.14	0.2099	-0.0417	-0.4733	
-0.708576	0.397842	0.582916	-0.14	-0.35	-0.07	0.2099	-0.0463	-0.4779	
-0.707478	0.397354	0.58316	0	-0.07	0	0.2085	-0.0447	-0.4657	
-0.707966	0.396744	0.583526	0.35	0.14	0	0.2214	-0.0357	-0.4671	
-0.708576	0.398208	0.58499	0.42	0.21	-0.07	0.2201	-0.0495	-0.4687	
-0.709552	0.398574	0.584502	0.21	0	0	0.2144	-0.0509	-0.4702	
-0.709186	0.397476	0.583038	-0.07	-0.21	0.07	0.2127	-0.0418	-0.4794	
-0.70882	0.398574	0.584014	-0.14	-0.07	0	0.2157	-0.0433	-0.4733	
-0.709796	0.398818	0.583648	-0.07	0	0	0.2055	-0.0401	-0.4764	
-0.70882	0.39955	0.583038	0.14	0	-0.07	0.2214	-0.0388	-0.4747	
-0.709796	0.398452	0.582916	0.14	0	-0.07	0.2214	-0.0388	-0.4808	
-0.708576	0.398818	0.584258	0.14	0	-0.07	0.2113	-0.0387	-0.4733	
-0.708332	0.397598	0.584624	0	0	0	0.21	-0.0463	-0.4672	
-0.707234	0.398696	0.584502	0.07	0.14	-0.07	0.21	-0.0478	-0.4718	
-0.70882	0.397842	0.583038	0.21	0.21	-0.07	0.2201	-0.0434	-0.4702	
-0.709064	0.39894	0.583282	0.28	0.21	-0.07	0.2143	-0.0479	-0.4779	
-0.708576	0.398696	0.583038	0.35	0.28	-0.07	0.2201	-0.0464	-0.4748	
-0.707844	0.39833	0.583892	0.21	0.28	0	0.2041	-0.0417	-0.4794	
-0.707356	0.397598	0.583648	0	0.07	0.14	0.2041	-0.0416	-0.4779	
-0.707112	0.396622	0.585234	-0.14	0	0.07	0.2143	-0.0448	-0.4748	
-0.708942	0.39711	0.582916	-0.07	0.28	0.21	0.2085	-0.0478	-0.4733	
-0.710162	0.398086	0.58072	0.35	0.42	0.14	0.217	-0.0326	-0.4732	
-0.710162	0.398818	0.58194	0.28	0.49	0.14	0.2055	-0.0432	-0.4764	
-0.707356	0.397964	0.586088	-0.07	0.21	0.14	0.2114	-0.0479	-0.4763	
-0.705404	0.399672	0.589138	-0.42	-0.42	0.21	0.2142	-0.0418	-0.4794	
-0.706746	0.401258	0.586332	-0.49	-0.28	0.28	0.2128	-0.0433	-0.4702	
-0.711748	0.402966	0.584502	-0.35	0.28	0.35	0.2099	-0.0417	-0.4702	
-0.71858	0.400038	0.58926	-0.21	0.77	0.21	0.2099	-0.0417	-0.4702	
-0.7198	0.410652	0.584746	1.26	-0.21	-0.63	0.1997	-0.0355	-0.4718	
-0.72285	0.412116	0.583038	-0.28	-0.35	-0.28	0.2084	-0.0402	-0.4702	
-0.721996	0.416386	0.566324	-0.21	2.87	-1.47	0.2215	-0.0419	-0.4717	
-0.712724	0.40382	0.582184	1.47	5.6	-1.82	0.2128	-0.0433	-0.4748	
-0.717116	0.405284	0.584746	1.75	3.29	-1.54	0.2216	-0.0464	-0.4671	
-0.711748	0.39772	0.581818	-0.07	-0.77	-1.33	0.2128	-0.0433	-0.4748	
-0.713944	0.398818	0.574742	0.07	-0.98	-1.75	0.2142	-0.0402	-0.4748	
-0.712602	0.394182	0.576816	-0.42	0.28	-1.26	0.2114	-0.0478	-0.4718	
-0.714188	0.40016	0.582062	0.98	1.19	-1.61	0.2142	-0.0418	-0.4794	
-0.71675	0.395402	0.582794	0.98	0.98	-1.33	0.2243	-0.0373	-0.4747	
-0.698206	0.38979	0.56486	7.21	1.47	-0.91	0.2086	-0.0539	-0.4703	
-0.725412	0.422608	0.581818	10.29	5.74	0.21	0.2114	-0.0433	-0.4733	
-0.721874	0.412848	0.580354	7.63	2.31	0.91	0.2273	-0.0419	-0.461	
-0.729072	0.417606	0.574742	1.12	0.98	1.12	0.2157	-0.0418	-0.4732	
-0.806298	0.4148	0.57218	2.38	0.56	0.07	0.2071	-0.0493	-0.4657	
-0.731756	0.425536	0.562054	1.4	0.07	-9.38	0.2085	-0.0524	-0.4779	
-0.738222	0.417606	0.571082	-7.14	1.89	-7.77	0.2173	-0.0571	-0.4779	
-0.721264	0.421144	0.593042	-12.88	-0.07	-8.96	0.223	-0.0465	-0.4763	
-0.740052	0.429196	0.593042	-11.06	-7	-1.61	0.2243	-0.0358	-0.4793	
-0.75213	0.411018	0.58987	-12.6	-11.62	1.89	0.2155	-0.0326	-0.4763	
-0.745176	0.417484	0.580842	-9.59	-10.99	-0.7	0.2099	-0.0463	-0.4733	
-0.762378	0.426512	0.586942	-10.64	-6.93	0.91	0.2155	-0.0372	-0.4855	
-0.777506	0.409188	0.610488	-13.86	-3.85	-2.59	0.2141	-0.0311	-0.4732	
-0.773602	0.401014	0.621346	-29.68	-3.99	-13.02	0.2155	-0.0311	-0.4839	
-0.757986	0.387716	0.632448	-49.91	-9.38	-23.73	0.2054	-0.0294	-0.4748	
-0.733586	0.394914	0.617808	-45.08	-15.96	-21.07	0.2154	-0.0173	-0.4732	
-0.743834	0.363072	0.617442	-25.06	-16.38	-8.33	0.211	-0.0234	-0.4839	
-0.747738	0.313662	0.62708	-33.32	-14.91	-11.9	0.2007	-0.007999999	-0.4839	
-0.744322	0.312076	0.642696	-56.77	-16.59	-28.7	0.2178	0.0146	-0.4761	
-0.70821	0.28304	0.6771	-80.43	-22.4	-42.91	0.1975	0.0195	-0.4808	
-0.780434	0.342454	0.669658	-45.08	-22.89	-26.95	0.19	0.0363	-0.4854	
-0.712114	0.219234	0.667828	-55.44	-25.34	-23.52	0.1927	0.0501	-0.4838	
-0.724436	0.235094	0.68442	-56	-25.97	-30.52	0.1827	0.041	-0.4915	
-0.688934	0.206424	0.64782	-32.76	-26.53	-26.11	0.1782	0.0579	-0.4839	
-0.68381	0.180926	0.65636	-33.46	-15.26	-27.16	0.1782	0.0472	-0.4961	
-0.706502	0.203862	0.679418	-19.18	-14	-27.37	0.1866	0.0684	-0.4991	
-0.647942	0.174704	0.718946	-35.84	-18.13	-27.51	0.1734	0.0916	-0.4792	
-0.6588	0.184708	0.70577	-25.48	-25.06	-17.29	0.172	0.0763	-0.4992	
-0.661362	0.126758	0.730414	-33.88	-26.11	-13.93	0.156	0.0795	-0.5038	
-0.658434	0.121146	0.71431	-35.14	-29.4	-22.54	0.1603	0.0902	-0.4946	
-0.643184	0.168604	0.703574	-7.77	-28.42	-15.05	0.1546	0.0857	-0.4886	
-0.633668	0.119438	0.732366	-10.71	-23.8	-2.52	0.1543	0.1055	-0.5038	
-0.633668	0.12017	0.734684	-6.79	-22.05	-2.94	0.1428	0.095	-0.5039	
-0.612806	0.110654	0.747128	-7.91	-20.09	-1.54	0.15	0.0995	-0.5023	
-0.604998	0.111752	0.749446	-10.29	-21.35	-1.61	0.1486	0.101	-0.5008	
-0.599386	0.11224	0.74542	-12.74	-22.05	-1.12	0.1486	0.098	-0.4977	
-0.59353	0.089304	0.753594	-13.58	-23.59	-0.42	0.1311	0.1028	-0.51	
-0.58804	0.087352	0.758108	-14.63	-25.48	-2.38	0.1325	0.1089	-0.5039	
-0.577182	0.079544	0.77592	-19.11	-27.37	-3.71	0.1325	0.1165	-0.4962	
-0.579012	0.065636	0.784216	-23.73	-29.82	-4.83	0.1279	0.1257	-0.5085	
-0.571692	0.047336	0.799588	-32.9	-31.57	-10.71	0.1137	0.1076	-0.5056	
-0.55632	0.010492	0.823012	-61.81	-37.24	-28.42	0.119	0.1365	-0.5161	
-0.525088	0.00305	0.817156	-80.57	-50.61	-40.81	0.1062	0.1306	-0.4994	
-0.520086	-0.010004	0.800076	-72.8	-52.64	-32.48	0.0885	0.1507	-0.5041	
-0.517524	-0.020984	0.792024	-59.29	-48.79	-22.68	0.0783	0.1646	-0.4934	
-0.507886	-0.039406	0.807396	-43.33	-39.34	-12.11	0.0739	0.1662	-0.4995	
-0.496662	-0.065514	0.82228	-37.38	-33.6	-5.11	0.0679	0.1846	-0.495	
-0.486902	-0.086742	0.82228	-30.66	-29.75	-9.24	0.0694	0.1831	-0.4949	
-0.469944	-0.08418	0.83326	-31.92	-24.29	-13.3	0.0607	0.1878	-0.4874	
-0.46299	-0.091012	0.83448	-18.13	-19.88	-7.35	0.0518	0.1971	-0.495	
-0.462746	-0.1037	0.843264	-10.57	-11.13	-4.48	0.0505	0.191	-0.495	
-0.457134	-0.106018	0.84363	-6.65	-6.02	-4.06	0.0534	0.194	-0.4874	
-0.446398	-0.106506	0.841556	-5.67	-3.71	-2.8	0.046	0.2033	-0.492	
-0.436394	-0.114314	0.833382	-5.46	-2.31	-1.96	0.0476	0.191	-0.4935	
-0.429806	-0.121878	0.828868	-3.99	0.14	-1.12	0.0518	0.2017	-0.4889	
-0.422364	-0.127978	0.833016	-3.29	2.24	-0.35	0.0517	0.2155	-0.4828	
-0.416752	-0.129198	0.826062	-2.24	3.29	-0.84	0.0518	0.2001	-0.492	
-0.421632	-0.130662	0.818376	-1.96	4.69	-1.89	0.0446	0.2079	-0.4767	
-0.42517	-0.137372	0.81313	-1.12	8.54	-6.51	0.0548	0.1971	-0.4858	
-0.427488	-0.13603	0.808494	1.05	12.6	-8.89	0.0517	0.2109	-0.4858	
-0.424194	-0.13298	0.80154	2.66	13.58	-6.58	0.0563	0.1986	-0.4721	
-0.427732	-0.141886	0.79605	4.76	16.73	-3.5	0.0519	0.1971	-0.4904	
-0.427854	-0.131272	0.780312	9.38	21.42	-1.4	0.0575	0.2031	-0.4965	
-0.443226	-0.137006	0.794464	13.09	28.28	-0.7	0.0519	0.1971	-0.4889	
-0.460794	-0.116754	0.779946	14.77	32.69	-1.89	0.0591	0.2001	-0.4843	
-0.469822	-0.09516	0.7747	16.66	39.41	-1.12	0.075	0.1968	-0.4918	
-0.502152	-0.081374	0.784582	19.53	45.92	1.05	0.0751	0.1891	-0.4888	
-0.514596	-0.06649	0.782264	21.63	48.23	2.52	0.0765	0.1937	-0.4903	
-0.530944	-0.053802	0.7686	29.33	50.75	9.73	0.0925	0.1904	-0.4871	
-0.557052	-0.044408	0.76006	38.64	57.82	18.97	0.094	0.1858	-0.4932	
-0.571692	-0.034648	0.744932	47.74	68.11	23.45	0.113	0.1749	-0.4794	
-0.60268	-0.013176	0.723094	60.41	79.73	32.76	0.1244	0.1808	-0.4931	
-0.625128	0.026352	0.73444	67.13	87.57	37.52	0.1291	0.1625	-0.4824	
-0.667584	0.002196	0.790438	59.22	83.79	35.98	0.151	0.1484	-0.4792	
-0.665876	0.085522	0.742126	45.15	53.83	26.25	0.1715	0.1313	-0.4807	
-0.6588	0.065392	0.715042	34.86	31.15	34.65	0.1757	0.1359	-0.4806	
-0.679052	0.103334	0.667462	43.89	21.49	41.09	0.1802	0.1221	-0.4852	
-0.689422	0.139568	0.635132	61.18	25.13	49.28	0.1745	0.1145	-0.4899	
-0.737368	0.09333	0.67649	47.53	48.44	47.53	0.182	0.0961	-0.4853	
-0.7686	0.193126	0.735538	27.09	38.71	7.84	0.198	0.0882	-0.4837	
-0.781532	0.219234	0.72651	15.89	14.35	8.96	0.2141	0.0804	-0.4759	
-0.780922	0.22021	0.702964	6.3	-5.11	10.71	0.2097	0.0835	-0.476	
-0.771772	0.227774	0.676612	9.45	-12.81	15.47	0.217	0.0849	-0.4744	
-0.777384	0.227164	0.631716	32.55	-11.9	27.58	0.2013	0.0637	-0.4791	
-0.806176	0.219478	0.63684	52.08	-0.98	33.18	0.2028	0.0576	-0.4807	
-0.78873	0.244	0.653188	55.65	10.22	28.49	0.2102	0.0514	-0.473	
-0.801418	0.365146	0.682834	78.96	7.49	48.16	0.2029	0.0438	-0.4853	
-0.76677	0.253516	0.711138	76.09	-1.54	58.73	0.1973	0.0363	-0.4747	
-0.72895	0.32635	0.622688	47.67	-9.66	45.71	0.2164	0.01	-0.4777	
-0.725168	0.341356	0.586454	53.13	-6.23	47.25	0.2094	-0.0066	-0.4762	
-0.731024	0.3538	0.593042	55.44	9.17	39.69	0.2095	-0.0142	-0.4808	
-0.684298	0.35136	0.594506	65.87	19.6	37.31	0.208	-0.005	-0.4747	
-0.681736	0.389546	0.598288	74.13	19.39	36.33	0.2084	-0.0386	-0.4748	
-0.78385	0.452498	0.547414	64.33	26.67	31.71	0.2114	-0.0478	-0.4672	
-0.705404	0.439688	0.560956	50.75	23.45	27.3	0.2146	-0.0647	-0.4657	
-0.725412	0.474336	0.541558	38.22	17.15	26.39	0.2087	-0.0661	-0.4734	
-0.722118	0.497638	0.556564	18.83	12.18	21.42	0.2249	-0.074	-0.4595	
-0.729682	0.518378	0.543876	19.18	4.62	21	0.2147	-0.07229999	-0.455	
-0.732122	0.524356	0.515206	21	2.45	18.76	0.2207	-0.0892	-0.4566	
-0.750422	0.543388	0.498126	20.93	5.25	16.31	0.2179	-0.0907	-0.4535	
-0.73322	0.530212	0.508984	19.95	8.61	11.83	0.2193	-0.0984	-0.4658	
-0.728218	0.535336	0.505324	18.06	7	10.15	0.2252	-0.0999	-0.4611	
-0.719312	0.518622	0.518378	12.81	6.93	9.73	0.2237	-0.0953	-0.4535	
-0.72895	0.53314	0.5185	9.87	6.79	8.19	0.2195	-0.1044	-0.4536	
-0.726998	0.546194	0.507642	9.17	6.16	6.93	0.2165	-0.0983	-0.449	
-0.734562	0.55388	0.501542	8.47	7.63	5.81	0.2254	-0.1167	-0.4597	
-0.714188	0.553514	0.503738	2.45	6.58	4.55	0.2239	-0.1029	-0.4444	
-0.706502	0.543632	0.50752	-1.4	2.03	2.94	0.2283	-0.1091	-0.4459	
-0.699304	0.53619	0.493368	-2.87	-0.77	2.24	0.2326	-0.1061	-0.4504	
-0.695522	0.526186	0.493856	-4.13	-1.4	1.54	0.2282	-0.1061	-0.4474	
-0.691862	0.516182	0.504226	-4.27	-1.05	2.1	0.2224	-0.1014	-0.4474	
-0.692838	0.5185	0.507032	-2.73	-1.26	2.31	0.2282	-0.103	-0.4535	
-0.690886	0.518866	0.50813	-1.54	-1.82	2.03	0.218	-0.1013	-0.4505	
-0.688324	0.521672	0.505446	-0.63	-2.03	1.05	0.2182	-0.1136	-0.4505	
-0.690642	0.524722	0.508984	-0.84	-0.63	-0.07	0.218	-0.1029	-0.4627	
-0.688812	0.519842	0.507642	0.91	1.4	-0.21	0.2167	-0.1059	-0.4444	
-0.698938	0.528016	0.507276	1.61	2.52	-0.7	0.2238	-0.0999	-0.4444	
-0.703574	0.531188	0.511668	-0.07	1.82	-1.96	0.2253	-0.1045	-0.4566	
-0.703208	0.53741	0.509106	-1.96	0	-3.22	0.2325	-0.1046	-0.4519	
-0.708576	0.546804	0.507886	-3.99	-1.61	-2.59	0.2283	-0.1076	-0.4459	
-0.709308	0.533994	0.512766	-8.75	-4.2	-2.45	0.215	-0.09519999	-0.4566	
-0.708454	0.532652	0.513864	-12.32	-7.42	-4.2	0.2295	-0.09079999	-0.4534	
-0.708454	0.523258	0.522038	-16.38	-9.8	-5.74	0.231	-0.0969	-0.4443	
-0.702476	0.523502	0.523868	-19.11	-12.95	-6.93	0.2251	-0.08769999	-0.4504	
-0.692716	0.511302	0.52216	-19.95	-13.79	-6.3	0.2165	-0.0968	-0.4551	
-0.690398	0.498736	0.534604	-18.34	-12.18	-6.02	0.2107	-0.0967	-0.4566	
-0.682956	0.479216	0.544852	-18.06	-10.85	-9.8	0.2179	-0.0922	-0.4581	
-0.693204	0.481778	0.569984	-19.46	-12.88	-11.2	0.2104	-0.0814	-0.4688	
-0.697108	0.491782	0.560224	-23.45	-18.27	-13.79	0.2119	-0.083	-0.4597	
-0.684298	0.4941	0.555832	-18.76	-18.9	-8.82	0.2075	-0.0737	-0.4581	
-0.681858	0.4758	0.524478	-7.77	-12.46	-6.58	0.2176	-0.0831	-0.4749	
-0.696254	0.486902	0.569008	-6.23	-0.77	-5.32	0.2044	-0.06	-0.4688	
-0.6893	0.483974	0.59231	-3.29	-3.5	-4.76	0.2189	-0.0693	-0.4703	
-0.693814	0.48129	0.595238	-4.41	-11.97	0.21	0.2045	-0.0676	-0.4642	
-0.711748	0.462746	0.58133	-9.87	-18.2	1.26	0.2103	-0.0677	-0.4657	
-0.697352	0.477874	0.576938	-10.01	-17.78	-2.8	0.1987	-0.069	-0.4658	
-0.703818	0.485316	0.577426	-7.35	-13.72	-3.43	0.1972	-0.0645	-0.4719	
-0.69479	0.493124	0.58682	-7.49	-10.36	-4.69	0.19	-0.0735	-0.4689	
-0.701378	0.48617	0.60512	-20.72	-12.32	-7	0.1884	-0.0628	-0.4796	
-0.72407	0.478606	0.621956	-33.95	-17.29	-11.97	0.1984	-0.0538	-0.481	
-0.723338	0.458598	0.634888	-49.21	-23.73	-17.36	0.1897	-0.0521	-0.4735	
-0.718336	0.439322	0.63684	-61.32	-26.39	-21.63	0.1881	-0.043	-0.4857	
-0.713822	0.420534	0.657336	-68.95	-23.38	-26.11	0.1779	-0.0337	-0.4781	
-0.733342	0.408456	0.672708	-70.7	-23.38	-28.21	0.195	-0.0171	-0.4947	
-0.669292	0.39406	0.712602	-58.8	-24.43	-21.28	0.1818	-0.0078	-0.4932	
-0.759572	0.353068	0.711016	-39.2	-20.93	-5.46	0.1817	0.0013	-0.4978	
-0.704184	0.29829	0.709308	-57.96	-17.36	-19.11	0.1745	0	-0.4917	
-0.615978	0.287676	0.693692	-49.35	-18.13	-25.83	0.1684	0.0275	-0.4902	
-0.67222	0.26413	0.702354	-33.6	-16.59	-17.29	0.1654	0.0336	-0.4947	
-0.6771	0.234362	0.706014	-60.83	-18.13	-31.43	0.1623	0.0459	-0.4932	
-0.49898	0.18544	0.749202	-52.5	-25.34	-39.2	0.1709	0.0457	-0.5054	
-0.714676	0.2623	0.734684	-34.93	-27.86	-25.83	0.1563	0.0628	-0.4901	
-0.620126	0.183732	0.749446	-81.55	-22.4	-36.75	0.1446	0.0659	-0.5039	
-0.60634	0.197152	0.770064	-51.1	-30.8	-40.32	0.1533	0.0735	-0.4932	
-0.646844	0.218624	0.749812	-47.25	-33.39	-31.85	0.1386	0.0889	-0.5024	
-0.58682	0.135176	0.75152	-60.41	-24.43	-24.99	0.1386	0.092	-0.4886	
-0.51484	0.13298	0.788852	-47.88	-27.02	-30.45	0.1225	0.1075	-0.4887	
-0.573278	0.12688	0.776164	-12.67	-29.68	-10.92	0.1078	0.1199	-0.5025	
-0.553514	0.09455	0.781776	-13.09	-26.11	-5.04	0.1163	0.129	-0.5009	
-0.550586	0.08113	0.79544	-10.64	-20.23	-9.52	0.115	0.1244	-0.4963	
-0.544974	0.096868	0.80642	-17.08	-16.38	-11.55	0.0991	0.117	-0.498	
-0.549732	0.065758	0.823256	-27.44	-17.57	-9.31	0.1004	0.1261	-0.5041	
-0.556564	0.043798	0.828258	-42.35	-23.03	-16.94	0.109	0.1321	-0.5055	
-0.545706	0.01037	0.826794	-66.5	-30.94	-26.53	0.1002	0.1506	-0.4979	
-0.453962	-0.055022	0.834846	-90.44	-41.02	-39.2	0.087	0.1599	-0.5041	
-0.497516	-0.01037	0.799466	-52.57	-49.42	-32.83	0.0768	0.1708	-0.4919	
-0.460672	-0.052826	0.797636	-44.24	-41.51	-24.36	0.0708	0.1831	-0.4949	
-0.456524	-0.051362	0.801906	-27.58	-30.87	-16.38	0.0694	0.1831	-0.4934	
-0.45628	-0.06954	0.823134	-18.2	-23.17	-10.71	0.0665	0.1816	-0.4934	
-0.449326	-0.08418	0.825696	-16.24	-19.04	-9.03	0.0489	0.1956	-0.4966	
-0.446154	-0.09272	0.831674	-14.42	-16.24	-8.19	0.0475	0.1956	-0.4935	
-0.436028	-0.101382	0.830942	-12.74	-15.68	-6.3	0.049	0.1925	-0.4935	
-0.423218	-0.10553	0.83204	-10.22	-13.37	-3.57	0.0389	0.1865	-0.4997	
-0.41968	-0.112606	0.833992	-8.33	-10.15	-2.52	0.0388	0.1927	-0.4951	
-0.416508	-0.116022	0.82899	-5.67	-5.25	-1.26	0.0445	0.2094	-0.4889	
-0.4148	-0.121756	0.828624	-2.87	-0.28	-0.7	0.0447	0.1896	-0.4875	
-0.414434	-0.117608	0.829112	-0.21	3.15	-0.98	0.0447	0.1941	-0.4905	
-0.413214	-0.11773	0.833626	0.91	4.06	-0.28	0.0459	0.2125	-0.4843	
-0.417606	-0.115046	0.840092	1.19	3.99	-0.28	0.0417	0.2018	-0.4874	
-0.418216	-0.113216	0.839482	1.26	3.85	0	0.0489	0.2032	-0.492	
-0.416996	-0.113582	0.833504	1.61	3.99	0.42	0.0447	0.188	-0.4875	
-0.422608	-0.123464	0.836066	1.96	5.04	-1.82	0.0519	0.1925	-0.4843	
-0.419802	-0.116632	0.823134	2.87	5.95	-3.29	0.0561	0.2031	-0.4904	
-0.430538	-0.112484	0.816058	4.2	9.38	-6.37	0.0432	0.1942	-0.4875	
-0.436882	-0.105896	0.815082	6.65	14.49	-6.02	0.0461	0.1957	-0.4859	
-0.444934	-0.098454	0.819718	9.52	19.53	-5.18	0.0518	0.2063	-0.4858	
-0.449204	-0.093452	0.822524	11.06	23.1	-3.64	0.0489	0.2032	-0.4889	
-0.455548	-0.082472	0.825452	11.97	26.11	-2.66	0.0577	0.2001	-0.4812	
-0.471042	-0.073322	0.8174	12.88	28.42	-0.42	0.0693	0.1892	-0.4949	
-0.491172	-0.069174	0.820938	15.61	30.73	1.75	0.0663	0.1969	-0.4949	
-0.499224	-0.06222	0.801418	20.02	35.21	6.37	0.0679	0.1892	-0.4858	
-0.513742	-0.05124	0.783484	28.28	42.7	12.6	0.0694	0.18	-0.498	
-0.530334	-0.032574	0.776286	40.95	53.06	20.37	0.08679999	0.1783	-0.4887	
-0.552172	-0.026474	0.76799	53.9	62.65	29.68	0.0942	0.169	-0.4872	
-0.566324	0.020374	0.775554	56.42	68.04	29.4	0.1074	0.1582	-0.4902	
-0.597922	0.022936	0.764086	60.97	68.6	34.93	0.1162	0.1473	-0.4917	
-0.623054	0.031232	0.830698	41.3	59.22	20.65	0.1322	0.1364	-0.4916	
-0.609024	0.072956	0.766648	28.84	31.29	19.04	0.1335	0.1486	-0.4992	
-0.606462	0.080032	0.73383	29.96	20.09	30.17	0.1396	0.1287	-0.4885	
-0.61854	0.08235	0.690764	45.15	25.62	36.68	0.1483	0.1301	-0.49	
-0.609878	0.111752	0.679296	61.18	40.53	36.26	0.16	0.1131	-0.49	
-0.714798	0.12322	0.736758	36.33	61.46	35	0.1719	0.0977	-0.4792	
-0.697718	0.123098	0.77836	46.69	60.06	16.8	0.1718	0.1007	-0.493	
-0.737124	0.219112	0.78324	37.24	37.73	6.72	0.1821	0.0869	-0.4868	
-0.755668	0.225944	0.764208	29.54	14.14	15.33	0.1966	0.0836	-0.4898	
-0.766526	0.22387	0.737246	23.03	-0.56	17.99	0.1881	0.07759999	-0.4807	
-0.763964	0.229604	0.693814	22.19	-5.04	14.91	0.1924	0.0715	-0.4868	
-0.755302	0.222284	0.67771	26.81	-1.12	16.03	0.1896	0.0669	-0.4899	
-0.74847	0.219966	0.665632	30.52	4.62	17.01	0.1883	0.0562	-0.4838	
-0.734684	0.229238	0.671854	31.92	10.99	16.31	0.1797	0.0502	-0.49	
-0.72468	0.242902	0.67649	36.75	11.9	17.36	0.1897	0.0608	-0.4808	
-0.724924	0.262422	0.670634	39.2	9.94	17.92	0.1973	0.0301	-0.4854	
-0.714554	0.282186	0.652578	43.82	7.98	19.25	0.1973	0.0378	-0.4747	
-0.713822	0.283772	0.674294	41.44	14.49	23.59	0.1959	0.0348	-0.4777	
-0.689178	0.30988	0.657214	51.17	10.15	30.52	0.199	0.0087	-0.4839	
-0.734562	0.334158	0.604632	60.41	2.52	39.2	0.199	0.0087	-0.4885	
-0.691008	0.308904	0.609146	54.74	3.29	38.71	0.2006	-0.0019	-0.4854	
-0.496906	0.299022	0.51545	52.01	1.61	32.13	0.2051	-0.0081	-0.4824	
-0.74786	0.40138	0.606828	43.89	16.45	33.39	0.2038	-0.0249	-0.4855	
-0.727852	0.377102	0.624152	43.26	16.73	28.56	0.2039	-0.0279	-0.4702	
-0.706014	0.394182	0.608536	43.33	16.8	30.59	0.2085	-0.0447	-0.4718	
-0.694668	0.428098	0.596702	36.82	15.96	22.33	0.1998	-0.0416	-0.4718	
-0.701134	0.456768	0.574742	36.89	13.86	22.47	0.2144	-0.0555	-0.4687	
-0.717726	0.485682	0.545828	33.6	10.64	22.75	0.2131	-0.0662	-0.4672	
-0.741272	0.50752	0.560224	21	9.59	18.83	0.219	-0.0709	-0.4703	
-0.730414	0.499956	0.546316	17.57	8.33	14.07	0.2103	-0.0769	-0.4764	
-0.71919	0.516182	0.531066	18.34	10.29	11.55	0.209	-0.0845	-0.4643	
-0.722972	0.505324	0.549	17.15	13.23	9.73	0.2117	-0.0677	-0.4672	
-0.710284	0.512278	0.539728	17.08	14.28	6.02	0.212	-0.09209999	-0.4627	
-0.689422	0.50996	0.54351	14.42	14	4.83	0.215	-0.0937	-0.4551	
-0.679418	0.499224	0.54107	8.19	9.1	5.18	0.2049	-0.0935	-0.4521	
-0.66307	0.484218	0.533628	4.48	4.41	6.3	0.2222	-0.0938	-0.455	
-0.673928	0.471896	0.549976	4.83	0.14	7.91	0.215	-0.0937	-0.449	
-0.680638	0.518134	0.53314	9.17	-1.89	7.77	0.2251	-0.0938	-0.4596	
0.279014	0.329644	0.412238	3.5	-11.34	-23.66	0.2106	-0.09209999	-0.4627	
-0.58926	0.357826	0.108946	9.73	-161.42	-1.75	0.2194	-0.0999	-0.4627	
-1.08397	0.496662	0.154086	13.09	-45.78	81.48	0.2005	-0.0966	-0.4689	
-1.070428	0.746152	0.73322	40.04	-63	94.92	0.1818	-0.1147	-0.4767	
-0.80215	0.938546	1.011502	62.93	16.03	70.77	0.166	-0.1175	-0.4692	
-0.535092	0.557906	0.849486	-11.48	51.8	-11.2	0.1676	-0.1313	-0.4632	
-0.552904	0.516182	0.71492	-9.24	-3.08	6.51	0.1792	-0.133	-0.4661	
-0.561444	0.564494	0.610366	-10.78	-47.18	0.56	0.1763	-0.1314	-0.4661	
-0.640378	0.599264	0.476044	-14.84	-41.86	-4.83	0.1706	-0.1359	-0.4647	
-0.638426	0.62342	0.481412	-5.74	-14.77	-8.96	0.1689	-0.1268	-0.4799	
-0.59658	0.56608	0.54412	0.98	7.35	-3.71	0.1586	-0.1159	-0.4876	
-0.59292	0.55937	0.620126	2.24	8.19	-4.55	0.1646	-0.1251	-0.4723	
-0.593164	0.583282	0.612806	1.89	-0.63	-5.67	0.169	-0.1313	-0.4738	
-0.587552	0.555954	0.565958	-1.47	-5.88	-5.46	0.1646	-0.1282	-0.4769	
-0.582794	0.551196	0.562176	-1.05	-6.93	-5.81	0.1587	-0.1144	-0.4739	
-0.57157	0.551928	0.584014	0.56	-8.82	-4.06	0.1587	-0.1205	-0.4815	
-0.569984	0.520696	0.58072	-11.97	-8.4	-4.13	0.1645	-0.1206	-0.4754	
-0.585478	0.53985	0.60939	-26.04	-13.72	-4.27	0.1559	-0.125	-0.4754	
-0.58011	0.553392	0.642696	-41.72	-19.81	-3.99	0.1587	-0.1128	-0.4738	
-0.595238	0.542656	0.688324	-57.96	-22.19	-0.77	0.1643	-0.1022	-0.4768	
-0.584868	0.499712	0.712968	-62.79	-27.72	6.02	0.1527	-0.1052	-0.4876	
-0.57401	0.494222	0.687348	-55.09	-36.26	19.74	0.1482	-0.0929	-0.4891	
-0.569252	0.459452	0.643916	-51.03	-51.45	35.56	0.1408	-0.0836	-0.4907	
-0.55815	0.485316	0.598288	-48.93	-76.51	45.92	0.1363	-0.0713	-0.4907	
-0.537898	0.535702	0.607194	-53.27	-113.68	48.09	0.1217	-0.0635	-0.5014	
-0.49837	0.579744	0.706136	-48.37	-113.54	48.3	0.0999	-0.0663	-0.5138	
-0.473116	0.611464	0.797758	-28.35	-94.01	42.7	0.08109999	-0.0692	-0.5185	
-0.456768	0.619394	0.83692	-5.53	-65.45	30.1	0.0549	-0.0612	-0.5187	
-0.466528	0.624518	0.870836	-4.27	-38.92	10.57	0.0446	-0.0473	-0.5172	
-0.512644	0.625494	0.883402	-14.49	-21.7	-9.94	0.0405	-0.061	-0.5142	
-0.535092	0.622444	0.883768	-28.14	-14.49	-26.74	0.0403	-0.0503	-0.5264	
-0.545706	0.572302	0.865224	-40.95	-12.88	-38.57	0.046	-0.0412	-0.5233	
-0.271328	0.093696	0.89243	-49.07	-12.81	-24.08	0.0415	-0.032	-0.5263	
-0.306098	0.375272	0.799954	-41.51	-15.47	14.21	0.0298	-0.0257	-0.5249	
-0.490928	0.48556	0.803004	-65.24	-62.72	5.74	0.021	-0.0195	-0.531	
-0.37088	0.535824	0.876326	-76.44	-60.62	13.58	0.0208	0.0018	-0.5294	
-0.058194	0.409554	0.918904	-47.95	-38.43	15.47	-0.0009	0.0067	-0.528	
-0.281332	0.37759	0.92598	-48.09	-37.94	-2.94	0.0121	0.0019	-0.5279	
-0.474702	0.35868	0.927322	-54.6	-40.67	6.72	-0.0026	0.0219	-0.5371	
0.047824	0.40443	0.775432	-36.89	-33.32	36.82	-0.0112	0.0236	-0.525	
-0.388814	0.36722	0.991982	-63.49	-45.01	14.7	-0.0128	0.0343	-0.528	
-0.214964	0.243512	0.920002	-69.72	-64.54	3.01	-0.026	0.0421	-0.5342	
-0.241926	0.265106	0.922198	-94.01	-63.14	-5.46	-0.0407	0.0622	-0.5327	
-0.211548	0.238144	0.952088	-96.88	-62.3	-8.54	-0.0466	0.07449999	-0.519	
-0.180438	0.21594	0.945744	-96.53	-65.1	-13.72	-0.0597	0.0854	-0.519	
-0.163236	0.220698	0.917318	-83.09	-63.07	-13.86	-0.07009999	0.1039	-0.5206	
-0.097844	0.169458	0.9211	-61.25	-54.6	-4.2	-0.0817	0.1102	-0.5145	
-0.09357399	0.145424	0.945866	-59.08	-56.84	-2.38	-0.0891	0.1164	-0.513	
-0.068442	0.125294	0.950136	-67.62	-61.04	-0.98	-0.098	0.1379	-0.5115	
-0.046726	0.122244	0.95465	-59.64	-66.15	4.41	-0.101	0.1563	-0.4977	
-0.01403	0.078934	0.94123	-62.86	-67.27	11.9	-0.1242	0.1551	-0.4994	
-0.016714	0.035624	0.948306	-70.28	-64.33	8.26	-0.1285	0.1506	-0.4964	
-0.313662	-0.166408	1.148264	-64.68	-56.35	10.64	-0.1345	0.1767	-0.4887	
-0.127612	-0.083692	0.970998	10.71	-7.77	68.32	-0.1461	0.1814	-0.4827	
0.066856	0.026962	0.852292	-49.28	-60.97	2.38	-0.1419	0.1844	-0.4857	
0.184952	0.085522	0.86986	-63.77	-74.2	0	-0.1549	0.1907	-0.4735	
0.153598	-0.068076	0.89548	-62.37	-77.35	4.06	-0.1637	0.2046	-0.4659	
0.151036	-0.060756	0.874252	-48.23	-57.12	0.7	-0.1637	0.2092	-0.4552	
0.274744	-0.114802	0.815936	-30.73	-40.81	-0.07	-0.1767	0.2109	-0.4507	
0.108824	-0.073932	0.904996	-27.51	-18.83	-0.49	-0.1841	0.2263	-0.4446	
0.145912	-0.098942	0.926224	-11.97	-8.82	1.61	-0.1811	0.2217	-0.4416	
0.10614	-0.108336	0.957334	-11.69	-7.7	1.54	-0.1855	0.2187	-0.4569	
0.100162	-0.105286	0.980026	-11.69	-13.51	3.43	-0.1783	0.2232	-0.4446	
0.194712	-0.121878	0.931592	-18.2	-25.62	2.8	-0.1797	0.2263	-0.4385	
0.172264	-0.123708	0.914878	-24.5	-30.24	3.15	-0.1885	0.2371	-0.4354	
0.159454	-0.121878	0.89304	-22.4	-27.79	2.1	-0.2001	0.2342	-0.4371	
0.183244	-0.141032	0.881938	-15.89	-16.38	1.75	-0.2003	0.248	-0.4386	
0.169458	-0.139934	0.900238	-5.46	-6.44	1.75	-0.2089	0.2404	-0.4432	
0.185806	-0.15006	0.905484	2.24	0.07	1.47	-0.2001	0.2358	-0.431	
0.175436	-0.1464	0.904264	3.5	2.38	0.84	-0.2047	0.2572	-0.4279	
0.171776	-0.147254	0.89182	4.55	3.99	-0.56	-0.2058	0.2328	-0.4325	
0.17141	-0.14396	0.888038	8.89	8.26	-1.96	-0.2	0.2327	-0.4264	
0.1586	-0.137616	0.892674	12.74	10.57	-2.73	-0.2015	0.2343	-0.4279	
0.143472	-0.135908	0.886452	15.75	12.74	-3.08	-0.2028	0.2266	-0.4295	
0.149084	-0.126636	0.880962	25.34	13.23	-3.71	-0.1943	0.2403	-0.4278	
0.198982	-0.121146	0.872422	26.25	18.48	-6.44	-0.1884	0.2218	-0.4401	
0.111752	-0.057584	0.863394	-25.76	28.21	-7.21	-0.1999	0.222	-0.4371	
0.253638	-0.163724	0.89304	11.41	35.56	-7.35	-0.1841	0.2264	-0.4385	
0.104188	-0.088816	0.909998	7.91	40.81	-10.92	-0.1857	0.2401	-0.4385	
0.129442	-0.106262	0.876082	20.09	45.85	-6.23	-0.187	0.2202	-0.4523	
0.062586	-0.073322	0.92415	37.03	58.52	-8.05	-0.171	0.2231	-0.4415	
0.129076	-0.078812	0.921954	43.05	67.13	-7.84	-0.1552	0.2229	-0.4582	
0.060268	-0.041358	0.931104	48.65	71.19	-3.85	-0.1536	0.2075	-0.4658	
-0.007808	-0.024888	0.937204	57.54	73.57	1.05	-0.1319	0.2042	-0.4749	
-0.147376	0.00244	0.82289	66.22	67.48	3.43	-0.123	0.1826	-0.4764	
0.073444	-0.088084	0.975268	45.92	33.81	-4.55	-0.1202	0.1872	-0.4825	
0.002196	0.070028	0.933666	15.12	-27.09	-15.05	-0.1244	0.1765	-0.4825	
0.053436	0.03721	0.989664	0.98	-34.72	-10.01	-0.1272	0.1735	-0.4826	
0.076128	0.067832	0.840702	17.78	-19.88	-0.91	-0.1345	0.1797	-0.4841	
-0.05063	0.027816	0.964898	35.84	-0.28	7.7	-0.1417	0.1722	-0.4857	
-0.113094	0.054534	1.033462	80.43	60.69	19.18	-0.1256	0.1567	-0.4841	
0.093818	0.008174	0.92354	87.78	39.27	4.48	-0.1284	0.1475	-0.4979	
0.042212	0.14945	0.933056	67.13	38.78	2.94	-0.1153	0.1397	-0.5009	
0.07259	0.172386	0.997716	45.43	-23.45	-7.91	-0.1196	0.1321	-0.501	
0.052216	0.270718	0.870714	51.59	-11.83	14.28	-0.1239	0.1276	-0.5025	
-0.030744	0.173362	0.946476	41.23	-48.93	-7.14	-0.1267	0.1215	-0.4965	
-0.165188	0.193858	1.115324	95.06	95.62	31.71	-0.1294	0.1108	-0.5011	
0.02135	0.254614	0.851804	92.75	39.83	7.14	-0.1119	0.0938	-0.5087	
-0.047092	0.445788	0.711626	49.91	-40.74	-16.17	-0.1161	0.0785	-0.5164	
-0.049532	0.415288	0.97051	37.17	-83.79	14.21	-0.1131	0.0724	-0.5103	
-0.13115	0.366488	1.002352	67.06	-80.15	19.11	-0.1275	0.068	-0.5104	
-0.141642	0.364292	1.006622	72.8	-65.66	5.53	-0.1461	0.0499	-0.5044	
-0.208864	0.442494	1.353712	24.5	47.88	-51.94	-0.1547	0.0439	-0.5045	
-0.055144	0.306708	1.174616	132.72	112.21	8.19	-0.1458	0.027	-0.5015	
-0.020984	0.221918	1.031266	86.03	88.62	-17.78	-0.1327	0.0207	-0.5151	
-0.052704	0.426146	1.104344	32.83	45.08	-25.62	-0.1066	0.0112	-0.5196	
-0.177144	0.673318	1.195844	10.78	33.6	-21.98	-0.1021	-0.0009999999	-0.518	
-0.205448	0.458476	1.11142	28.42	57.12	-1.89	-0.102	-0.0072	-0.5242	
-0.119316	0.398574	0.914268	31.57	71.82	-13.86	-0.0831	-0.0119	-0.5118	
-0.111142	0.487512	0.784582	24.57	52.01	-11.2	-0.0759	-0.0136	-0.524	
-0.155672	0.450912	0.686738	28.7	44.59	-6.44	-0.0658	-0.0092	-0.5224	
-0.250588	0.421998	0.583648	23.31	-17.29	10.78	-0.0627	-0.0245	-0.5239	
-0.248514	0.487878	0.837896	7.63	2.59	18.34	-0.0656	-0.0275	-0.5194	
-0.168726	0.479826	0.928786	72.45	10.92	23.38	-0.067	-0.029	-0.5209	
-0.150548	0.439078	0.854976	60.55	11.34	19.88	-0.0683	-0.0366	-0.5194	
-0.166042	0.458232	0.896822	30.8	0.77	11.48	-0.0667	-0.0488	-0.5134	
-0.175802	0.50264	0.884988	17.71	-8.26	6.65	-0.0568	-0.0368	-0.5194	
-0.19459	0.532042	0.830942	-0.35	-9.66	5.04	-0.0653	-0.0489	-0.5256	
-0.194346	0.531676	0.848754	-6.3	-8.47	6.44	-0.0595	-0.0536	-0.5225	
-0.160186	0.520208	0.853512	-5.18	-6.09	7.35	-0.0595	-0.0474	-0.5103	
-0.15311	0.519964	0.844728	-3.29	-3.64	6.09	-0.0712	-0.0412	-0.5271	
-0.15494	0.508618	0.84241	-1.89	-1.96	5.18	-0.058	-0.0551	-0.5301	
-0.14396	0.493734	0.849364	-2.38	-1.96	4.13	-0.0682	-0.0488	-0.5164	
-0.146156	0.49776	0.842654	-2.87	-2.03	3.08	-0.0653	-0.0504	-0.524	
-0.142984	0.494344	0.845216	-3.36	-0.63	1.05	-0.0784	-0.0441	-0.5256	
-0.132736	0.496784	0.848144	-2.24	1.54	-1.61	-0.0668	-0.0458	-0.5271	
-0.1342	0.493246	0.86132	-1.82	1.89	-4.06	-0.0696	-0.0534	-0.5241	
-0.148596	0.485072	0.861686	-1.33	-0.49	-5.6	-0.0683	-0.0458	-0.5271	
-0.177266	0.483486	0.856928	0.21	-2.87	-5.25	-0.0724	-0.0549	-0.5149	
-0.174826	0.485682	0.843874	0.63	-4.27	-3.71	-0.0725	-0.0473	-0.518	
-0.155428	0.483852	0.838384	0.28	-4.2	-2.31	-0.074	-0.0457	-0.5226	
-0.149694	0.488732	0.847778	1.47	-3.01	-2.24	-0.0741	-0.0426	-0.518	
-0.14884	0.49166	0.856928	1.33	-2.73	-3.08	-0.0711	-0.0473	-0.5225	
-0.145424	0.5002	0.854	0.42	-2.66	-4.48	-0.0827	-0.0456	-0.5211	
-0.149694	0.483486	0.820328	3.22	0.42	-4.48	-0.07539999	-0.0564	-0.5287	
-0.148352	0.481412	0.847778	3.5	5.18	-6.58	-0.0711	-0.0488	-0.5164	
-0.170556	0.488	0.851194	3.29	6.37	-7.28	-0.0711	-0.0534	-0.5287	
-0.169458	0.490806	0.847534	2.1	3.15	-5.46	-0.0698	-0.0397	-0.524	
-0.161894	0.483242	0.852902	0.14	-0.42	-3.29	-0.0638	-0.0489	-0.5164	
-0.164944	0.48495	0.840702	0.98	-1.89	-2.73	-0.0638	-0.0504	-0.521	
-0.167384	0.48312	0.833016	2.31	-0.98	-2.52	-0.0682	-0.0473	-0.521	
-0.162992	0.490928	0.842288	3.64	0.35	-2.87	-0.0712	-0.0458	-0.5256	
-0.163358	0.48922	0.845094	3.5	0.35	-2.73	-0.0696	-0.0473	-0.5134	
-0.155672	0.496296	0.854244	4.62	-1.33	-2.45	-0.0682	-0.0442	-0.5149	
-0.155306	0.496784	0.8479	3.92	-3.36	-1.4	-0.0726	-0.0488	-0.5241	
-0.160796	0.51057	0.828502	3.64	-4.13	-1.33	-0.0639	-0.0474	-0.5194	
-0.168482	0.493368	0.833992	2.52	-0.56	0	-0.0653	-0.0504	-0.521	
-0.169946	0.484706	0.829356	5.6	-2.1	2.38	-0.068	-0.0611	-0.5195	
-0.209352	0.51545	0.863272	4.83	0.63	1.89	-0.061	-0.0459	-0.5286	
-0.15799	0.511302	0.850706	2.03	-2.31	2.59	-0.0725	-0.0549	-0.5211	
-0.15006	0.497028	0.841434	-0.14	-3.99	2.66	-0.0739	-0.0595	-0.5195	
-0.168848	0.49288	0.83021	-3.5	-5.11	4.41	-0.0755	-0.0488	-0.5272	
-0.178852	0.512766	0.845826	-7.35	-2.8	3.85	-0.0768	-0.0579	-0.5226	
-0.160918	0.505202	0.85461	-5.67	-2.94	0.98	-0.07539999	-0.0503	-0.5149	
-0.122244	0.493246	0.855586	-3.29	-3.92	1.33	-0.0696	-0.0519	-0.5241	
-0.139934	0.483608	0.83082	-6.44	-5.67	3.57	-0.07669999	-0.0563	-0.5119	
-0.159088	0.469944	0.826794	-6.51	-9.24	5.81	-0.0828	-0.041	-0.518	
-0.163602	0.474702	0.815326	-14.98	-15.4	8.47	-0.0782	-0.0548	-0.5135	
-0.138348	0.459696	0.849608	-21.77	-22.19	11.13	-0.074	-0.0442	-0.5103	
-0.137982	0.468968	0.843386	-19.11	-27.02	13.65	-0.0857	-0.0379	-0.515	
-0.149938	0.474214	0.851926	-34.44	-35.7	12.67	-0.09	-0.0394	-0.5104	
-0.137494	0.468724	0.906948	-31.01	-35.98	13.02	-0.1003	-0.0286	-0.5273	
-0.138104	0.439078	0.910364	-18.55	-29.4	13.37	-0.0944	-0.0301	-0.512	
-0.130174	0.43493	0.90585	-16.1	-28.77	11.34	-0.109	-0.0238	-0.5166	
-0.135786	0.4392	0.907924	-21.91	-34.65	13.51	-0.1178	-0.013	-0.5121	
-0.10858	0.417972	0.91012	-23.45	-40.81	14.63	-0.115	-0.0161	-0.5228	
-0.068808	0.430782	0.889868	-18.97	-41.58	16.17	-0.131	-0.0098	-0.5228	
0.052338	0.445422	0.879376	-16.45	-40.95	23.03	-0.1294	-0.0144	-0.5167	
0.064416	0.460428	0.924516	-20.16	-47.88	14.42	-0.1439	-0.0111	-0.5046	
0.198616	0.38186	0.918172	-8.61	-36.75	20.72	-0.1455	-0.002	-0.5138	
0.020496	0.394792	0.877912	-6.09	-33.53	10.64	-0.1527	-0.0064	-0.5138	
-0.031354	0.413214	0.851438	-7.56	-33.04	11.62	-0.1614	0.0012	-0.5093	
0.13359	0.40687	0.839848	-1.61	-24.85	15.68	-0.1759	0.009099999	-0.5002	
0.085034	0.406992	0.876204	1.12	-22.54	8.4	-0.1744	-0.0015	-0.5048	
0.084302	0.424804	0.879742	-1.05	-24.29	11.41	-0.1657	0.0059	-0.4971	
0.142862	0.427976	0.889502	2.1	-22.12	12.53	-0.1758	0	-0.4987	
0.163846	0.406504	0.91256	1.47	-22.75	6.65	-0.1759	0.0014	-0.5033	
0.10614	0.41968	0.87779	-3.78	-24.43	5.11	-0.1918	0.0001	-0.5018	
0.112972	0.4087	0.858758	-3.36	-17.78	4.76	-0.1903	0.0017	-0.4911	
0.131394	0.396866	0.86315	0.35	-13.23	2.45	-0.1934	0.0093	-0.5095	
0.125294	0.40443	0.845826	-0.98	-13.79	0.91	-0.1818	0.0184	-0.4926	
0.165798	0.404796	0.885964	0.28	-9.59	0.91	-0.1889	0.0047	-0.4957	
0.182268	0.389424	0.89853	3.43	-5.11	0.98	-0.1918	0.0047	-0.4942	
0.140178	0.398696	0.881572	2.1	-2.73	-0.77	-0.1889	0.0077	-0.4957	
0.11102	0.410408	0.87718	-1.33	-3.29	-0.28	-0.2062	0.0003	-0.4958	
0.14579	0.402356	0.888892	-2.31	-3.85	0.63	-0.1917	-0.0013	-0.4942	
0.134566	0.40016	0.897432	-3.5	-3.57	-0.84	-0.1903	0.0017	-0.4896	
0.112484	0.39711	0.88023	-6.86	-5.32	-1.54	-0.1933	0.0108	-0.4988	
0.120536	0.386984	0.88999	-9.38	-4.76	0.63	-0.2063	0.0126	-0.4851	
0.12688	0.374052	0.883158	-11.13	-5.18	-2.1	-0.1977	0.0186	-0.4957	
0.12688	0.397232	0.88267	-13.65	2.38	0.56	-0.1946	0.0079	-0.4835	
0.155062	0.38491	0.868518	-12.46	6.65	-1.4	-0.1948	0.0139	-0.4988	
0.153354	0.382836	0.878766	-12.6	6.02	-3.71	-0.1991	0.0125	-0.4912	
0.139568	0.378932	0.875838	-12.67	9.03	-3.85	-0.1976	0.0079	-0.4927	
0.150182	0.359168	0.870592	-16.38	9.24	-4.76	-0.1935	0.0231	-0.4987	
0.140056	0.373076	0.861198	-17.22	10.85	-6.23	-0.1906	0.0246	-0.4957	
0.135664	0.366244	0.886452	-13.72	14.84	-4.34	-0.1876	0.0108	-0.5048	
0.15006	0.36356	0.897432	-10.22	17.99	-4.2	-0.1864	0.0337	-0.4987	
0.148474	0.358802	0.90707	-11.06	19.81	-5.11	-0.1834	0.0306	-0.5002	
0.13298	0.375028	0.914024	-13.3	22.26	-9.45	-0.1761	0.0259	-0.5001	
0.110654	0.348432	0.90768	-12.11	24.99	-8.82	-0.179	0.0244	-0.5017	
0.10614	0.363438	0.9028	-9.87	30.03	-8.26	-0.1748	0.0304	-0.5077	
0.081496	0.32574	0.910364	-7.84	32.97	-8.96	-0.1633	0.0318	-0.5122	
0.114436	0.370026	0.946964	-7.21	39.2	-13.65	-0.1632	0.0288	-0.5031	
0.251442	0.496296	1.004426	-6.02	48.16	-12.11	-0.1561	0.0348	-0.5107	
0.154574	0.44835	0.978318	8.47	50.47	-21.56	-0.1445	0.0361	-0.5182	
0.039894	0.452742	0.957212	11.9	51.17	-31.15	-0.1502	0.0285	-0.5198	
-0.09467199	0.233264	0.898408	19.6	52.64	-17.08	-0.1372	0.0253	-0.5212	
-0.065514	0.275964	0.826062	15.19	51.24	-13.09	-0.1183	0.0236	-0.5104	
-0.09357399	0.361974	0.902678	11.34	43.12	-19.32	-0.1111	0.0219	-0.5165	
-0.187758	0.311222	0.876448	8.96	44.73	-17.85	-0.0936	0.014	-0.5225	
-0.162748	0.328058	0.928298	0.21	28.35	-6.58	-0.1067	0.0203	-0.5211	
-0.184952	0.361852	0.992836	7.49	35.49	-5.88	-0.09959999	0.0263	-0.521	
-0.176046	0.391498	0.948062	17.92	41.3	-7.14	-0.0936	0.0095	-0.5225	
-0.179462	0.38552	0.89487	13.09	39.9	-7.91	-0.0848	0.0047	-0.524	
-0.182756	0.376248	0.860588	6.93	26.95	-6.86	-0.08199999	0.0078	-0.5225	
-0.19154	0.362706	0.87718	-3.85	16.87	-8.54	-0.0777	0.0138	-0.5316	
-0.18361	0.37942	0.87901	-0.91	17.29	-5.81	-0.0718	0.0061	-0.5224	
-0.17873	0.38796	0.887062	-0.7	17.36	-5.88	-0.0675	0.0045	-0.5361	
-0.184464	0.38918	0.900726	-1.61	15.82	-6.02	-0.0661	0.009	-0.5346	
-0.172874	0.401502	0.906338	-0.84	12.25	-3.5	-0.06879999	0.0015	-0.5178	
-0.175802	0.395768	0.932202	-4.2	7.28	-8.75	-0.0588	0.0075	-0.5254	
-0.179218	0.364292	0.943792	-10.78	7	-8.47	-0.0604	0.0151	-0.5345	
-0.177388	0.35685	0.92354	-10.99	11.48	-5.6	-0.0603	0.0075	-0.5315	
-0.169336	0.337696	0.893406	-10.57	13.02	-1.75	-0.059	0.0243	-0.5222	
-0.167384	0.312808	0.86986	-12.39	10.36	0.84	-0.0589	0.0181	-0.5253	
-0.16531	0.323666	0.878034	-13.37	6.51	4.13	-0.0518	0.0226	-0.5359	
-0.173728	0.343186	0.90402	-8.96	10.78	6.86	-0.0634	0.0243	-0.5299	
-0.186294	0.353678	0.921344	-5.67	19.18	6.37	-0.0532	0.0211	-0.5253	
-0.208132	0.368562	0.915488	-5.53	25.27	3.29	-0.0546	0.0165	-0.5345	
-0.232532	0.375028	0.903532	-7.35	26.88	-1.68	-0.0447	0.0286	-0.5359	
-0.238266	0.38613	0.8967	-5.11	27.23	-5.11	-0.0403	0.027	-0.5343	
-0.266204	0.360266	0.886452	10.01	31.92	-5.39	-0.0287	0.0315	-0.522	
-0.270108	0.350262	0.882792	11.76	30.45	-7.56	-0.03	0.0208	-0.5297	
-0.27328	0.35685	0.882304	-0.7	23.8	-10.64	-0.0155	0.0176	-0.5327	
-0.284992	0.34038	0.891088	-2.94	19.11	-11.55	-0.0129	0.0343	-0.5372	
-0.284382	0.34831	0.884378	1.89	23.03	-7.35	-0.0113	0.0267	-0.5265	
-0.27877	0.35258	0.881938	0.63	25.06	-8.19	-0.0068	0.0159	-0.5326	
-0.291336	0.349774	0.883646	-2.45	25.13	-8.4	0.0031	0.028	-0.5295	
-0.305976	0.357338	0.88023	-3.85	21.98	-6.79	0.0061	0.0203	-0.5279	
-0.315736	0.346602	0.87413	-3.22	19.32	-5.95	0.0074	0.0279	-0.531	
-0.318786	0.34831	0.871812	-1.47	18.97	-3.64	0.0102	0.0325	-0.5416	
-0.315736	0.350506	0.865346	-3.29	19.04	-3.36	0.0132	0.0248	-0.5324	
-0.314882	0.345016	0.868884	-4.41	16.66	-4.2	0.0205	0.0309	-0.5186	
-0.326472	0.335988	0.869128	-2.45	17.15	-3.15	0.019	0.0278	-0.5309	
-0.332206	0.32147	0.867298	-0.56	18.62	-0.07	0.0249	0.0231	-0.5263	
-0.343552	0.327936	0.859856	-0.14	17.92	2.17	0.0249	0.0232	-0.5186	
-0.35868	0.331108	0.856074	-1.68	13.51	3.43	0.0175	0.0324	-0.5248	
-0.371734	0.32269	0.843996	-2.31	10.64	5.67	0.0263	0.0262	-0.5262	
-0.379786	0.330742	0.829966	-2.03	9.17	6.3	0.0204	0.0278	-0.5354	
-0.38247	0.33916	0.832162	-2.38	4.76	5.81	0.0335	0.0276	-0.5277	
-0.391254	0.33123	0.829722	-1.12	1.19	6.58	0.0335	0.0215	-0.5308	
-0.387594	0.340136	0.822524	0.63	-2.59	6.65	0.0333	0.0383	-0.5323	
-0.368806	0.348188	0.825696	-0.21	-7.21	5.95	0.0204	0.0324	-0.5263	
-0.36051	0.341844	0.83875	1.47	-9.38	4.13	0.029	0.0399	-0.5247	
-0.364536	0.33367	0.844118	6.51	-10.15	3.08	0.0277	0.0246	-0.5293	
-0.365756	0.339404	0.843386	7.56	-11.83	3.71	0.0219	0.0293	-0.5247	
-0.353068	0.343674	0.840214	5.81	-17.22	4.83	0.0234	0.0278	-0.5232	
-0.338916	0.353434	0.847778	5.04	-23.45	5.67	0.0219	0.0262	-0.5309	
-0.32147	0.353434	0.862662	3.29	-27.44	5.88	0.0162	0.0187	-0.5309	
-0.305488	0.346846	0.872544	3.85	-26.04	6.02	0.0133	0.0218	-0.5325	
-0.306586	0.338306	0.871202	4.2	-22.68	6.09	0.0132	0.0248	-0.5309	
-0.307196	0.35563	0.873398	8.96	-21.7	8.05	0.0074	0.028	-0.5294	
-0.311954	0.346968	0.884256	-0.7	-24.36	9.38	-0.0025	0.022	-0.528	
-0.290726	0.353678	0.882304	6.44	-28.56	13.16	-0.0056	0.0296	-0.5341	
-0.279624	0.349164	0.877058	-10.15	-33.04	12.67	0.0018	0.0128	-0.5265	
-0.263642	0.35258	0.877912	-4.62	-34.51	14.49	-0.0156	0.0252	-0.5281	
-0.256078	0.345992	0.878278	-6.44	-34.3	14.35	-0.0171	0.0314	-0.5235	
-0.254736	0.34099	0.86376	3.5	-33.46	14.28	-0.0199	0.0176	-0.5281	
-0.246562	0.345382	0.85949	0.91	-34.44	14.28	-0.0329	0.0147	-0.5297	
-0.228262	0.351604	0.85827	3.99	-37.94	14.77	-0.0358	0.0193	-0.5328	
-0.216794	0.361608	0.855952	8.4	-42.28	15.4	-0.0386	0.0118	-0.5283	
-0.196664	0.369782	0.871934	7.77	-49.49	16.03	-0.0546	0.0196	-0.5207	
-0.174704	0.380884	0.884134	6.58	-55.44	16.31	-0.0634	0.0258	-0.5299	
-0.138958	0.393328	0.89365	4.97	-60.76	16.38	-0.072	0.0214	-0.5269	
-0.083082	0.385642	0.913414	-0.21	-62.3	14.14	-0.0834	0.0124	-0.5194	
-0.030866	0.414922	0.983076	-2.66	-63.42	14.7	-0.0936	0.014	-0.5225	
-0.011956	0.416874	1.073356	-16.31	-41.3	12.25	-0.0951	0.0156	-0.5179	
0.000366	0.36905	0.988322	3.78	-25.9	11.55	-0.0993	0.0142	-0.5088	
-0.044042	0.344284	0.935496	0.84	-17.78	13.86	-0.1139	0.0174	-0.5135	
-0.0915	0.348676	0.915244	-6.86	-31.22	26.25	-0.1124	0.0128	-0.5165	
-0.11224	0.372344	0.922808	-24.57	-48.16	35.49	-0.1124	0.0143	-0.512	
-0.086498	0.373564	0.909022	-27.09	-55.23	35.63	-0.1329	0.0345	-0.512	
-0.02867	0.42456	0.889014	-24.92	-54.53	29.82	-0.1474	0.0346	-0.5152	
0.012566	0.446886	0.853512	-18.55	-51.17	19.74	-0.1518	0.0424	-0.5045	
0.066856	0.395158	0.821548	-18.55	-54.53	2.52	-0.1648	0.0441	-0.5061	
0.179096	0.418826	0.863272	-28.7	-52.15	-10.08	-0.172	0.0396	-0.5108	
0.249246	0.361608	0.917562	-17.29	-50.26	-17.36	-0.1765	0.0534	-0.5046	
0.233752	0.230702	0.954528	-19.46	-45.15	-17.64	-0.1968	0.0583	-0.5032	
0.176656	0.227408	0.96441	-6.3	-38.36	-11.34	-0.1838	0.0566	-0.5016	
0.106994	0.256688	0.953308	15.82	-24.15	-0.7	-0.1996	0.0537	-0.491	
0.126392	0.265716	0.9394	5.95	-19.88	6.02	-0.2054	0.0492	-0.4972	
0.143594	0.294142	0.940742	6.16	-21	8.75	-0.2039	0.0477	-0.4926	
0.143106	0.308782	0.94489	2.59	-20.23	10.08	-0.2024	0.0461	-0.488	
0.213134	0.33611	0.91866	0.14	-21.56	9.31	-0.2213	0.054	-0.4927	
0.192882	0.303048	0.916586	-2.59	-20.51	2.1	-0.2066	0.0386	-0.4896	
0.144936	0.292434	0.914756	4.76	-12.81	4.13	-0.2169	0.0479	-0.4866	
0.181414	0.33672	0.906704	6.79	-6.09	12.18	-0.2052	0.0432	-0.4789	
0.188978	0.308416	0.917196	2.59	-9.24	11.27	-0.2197	0.0418	-0.4897	
0.225212	0.347822	0.92598	0.49	-13.09	11.48	-0.2212	0.051	-0.482	
0.218868	0.340624	0.919758	-2.17	-10.22	10.57	-0.2081	0.0432	-0.4789	
0.224358	0.346358	0.909022	-3.08	-8.47	10.64	-0.2183	0.0525	-0.4729	
0.233386	0.377346	0.879376	-2.73	-2.17	5.39	-0.23	0.0572	-0.4897	
0.209108	0.356972	0.866444	-4.27	4.06	-0.42	-0.2197	0.0479	-0.479	
0.189954	0.342576	0.860954	-3.85	7.77	-5.67	-0.217	0.0601	-0.482	
0.199226	0.34953	0.861808	-3.71	5.46	-6.02	-0.2198	0.0556	-0.4774	
0.209962	0.348066	0.86071	-3.92	-0.84	-7.98	-0.2228	0.0587	-0.479	
0.2196	0.320494	0.871324	-5.81	-7.42	-7.35	-0.2139	0.0479	-0.4728	
0.22326	0.297802	0.895358	-4.48	-10.71	-5.53	-0.2213	0.0525	-0.4836	
0.23546	0.29158	0.91195	-5.25	-9.94	-1.54	-0.2256	0.0526	-0.4821	
0.243634	0.292922	0.91012	-6.58	-3.71	-0.21	-0.2256	0.0541	-0.4836	
0.238022	0.289384	0.91866	-7.49	5.25	1.12	-0.2269	0.045	-0.4775	
0.221674	0.27938	0.896822	-13.23	11.69	3.71	-0.2285	0.0541	-0.4836	
0.21777	0.27999	0.884988	-15.19	11.48	6.09	-0.2256	0.0557	-0.4775	
0.204106	0.27877	0.869494	-15.12	10.22	9.66	-0.217	0.0616	-0.4835	
0.205326	0.300242	0.874252	-17.57	6.93	10.43	-0.2156	0.0632	-0.4804	
0.204228	0.271816	0.888648	-22.47	1.05	7.91	-0.2214	0.0632	-0.4866	
0.187148	0.273524	0.879132	-23.17	2.24	7.7	-0.223	0.0724	-0.4866	
0.191052	0.278648	0.870104	-21.35	3.5	7.84	-0.2142	0.0692	-0.4804	
0.198128	0.2867	0.869372	-17.29	4.83	7.49	-0.2185	0.0755	-0.4651	
0.198372	0.299388	0.891454	-13.3	2.52	0.21	-0.2216	0.08769999	-0.4743	
0.202764	0.320738	0.877546	-6.65	1.75	-4.83	-0.2143	0.0815	-0.4773	
0.181414	0.32147	0.902556	-2.45	2.24	-9.87	-0.2129	0.0814	-0.4834	
0.140056	0.321348	0.996374	0	22.12	-24.5	-0.213	0.0845	-0.4819	
0.171898	0.222284	1.001254	-1.89	35.91	-37.94	-0.2086	0.0814	-0.491	
0.2562	0.16104	1.003206	-16.59	35.14	-43.33	-0.1999	0.0797	-0.491	
0.291946	0.210694	0.998082	-33.81	29.33	-29.54	-0.2058	0.0859	-0.494	
0.340624	0.254004	0.980392	-41.3	36.47	-21.98	-0.2	0.0828	-0.4894	
0.360266	0.23119	0.98576	-26.11	51.87	-15.75	-0.1784	0.0947	-0.4862	
0.20618	0.208254	0.949648	6.65	62.72	-11.27	-0.1782	0.0825	-0.4908	
0.06344	0.21838	0.889868	27.3	74.41	0.77	-0.174	0.0839	-0.4999	
-0.019886	0.235216	0.85217	39.69	77.42	5.39	-0.1508	0.0852	-0.4998	
-0.09333	0.245464	0.858148	47.95	72.03	5.32	-0.1421	0.0743	-0.5074	
-0.116022	0.284016	0.922686	37.52	56.84	5.46	-0.1391	0.06659999	-0.5104	
-0.135298	0.298046	0.992714	35.07	45.71	1.96	-0.1319	0.0665	-0.5135	
-0.144692	0.28792	1.024312	45.99	47.39	-2.45	-0.1202	0.0633	-0.5073	
-0.143838	0.290482	1.001498	42.07	56.07	-1.96	-0.113	0.0556	-0.521	
-0.1342	0.305732	0.962824	31.78	50.96	-2.94	-0.0953	0.0401	-0.5148	
-0.130906	0.33367	0.923662	12.32	39.48	-5.46	-0.0882	0.0445	-0.5148	
-0.139568	0.336354	0.906216	0.84	29.82	-5.39	-0.0838	0.0399	-0.527	
-0.14457	0.344894	0.909388	0.63	28.77	-5.39	-0.0839	0.0506	-0.5117	
-0.151768	0.341966	0.926834	0.14	30.31	-4.41	-0.0766	0.0428	-0.5254	
-0.145058	0.362218	0.944524	1.61	25.41	-4.69	-0.0692	0.0336	-0.5192	
-0.1342	0.390034	0.936838	-0.91	21.63	-1.96	-0.0751	0.0398	-0.5177	
-0.114314	0.388082	0.91805	-6.58	19.88	-3.22	-0.0636	0.0457	-0.5161	
-0.120292	0.356972	0.905606	-5.39	21.35	-9.87	-0.0635	0.0381	-0.5238	
-0.15921	0.301706	0.892064	-1.54	26.32	-14.98	-0.0594	0.0518	-0.5237	
-0.18727	0.287066	0.88084	2.45	31.01	-14.21	-0.0448	0.0455	-0.5251	
-0.188124	0.282918	0.891942	3.43	31.22	-11.55	-0.052	0.041	-0.5283	
-0.176656	0.284138	0.904996	2.94	29.05	-9.87	-0.0345	0.0346	-0.5251	
-0.177998	0.287554	0.926346	-0.14	28.98	-7.21	-0.0433	0.0378	-0.5267	
-0.216916	0.285968	0.935008	0.14	31.64	-4.9	-0.0304	0.0468	-0.5373	
-0.266082	0.285968	0.918538	29.05	33.53	-2.31	-0.0334	0.0468	-0.5434	
-0.293044	0.307074	0.89731	22.12	40.6	2.38	-0.0157	0.0405	-0.5189	
-0.304146	0.337818	0.88694	19.18	39.97	1.12	-0.0157	0.0329	-0.5204	
-0.323056	0.363682	0.885964	16.8	36.47	2.31	-0.0114	0.0358	-0.5295	
-0.326838	0.369294	0.898286	4.2	30.1	1.82	-0.0027	0.0357	-0.5249	
-0.328424	0.37271	0.882548	9.17	25.76	1.75	0.0031	0.0326	-0.5203	
-0.324276	0.376736	0.875106	3.85	20.44	1.68	0.0003	0.0235	-0.5219	
-0.320006	0.377834	0.868274	-4.27	16.38	-0.77	0.0103	0.0325	-0.5233	
-0.32635	0.369294	0.862784	-7.28	14.49	-3.43	0.0204	0.0339	-0.5202	
-0.318664	0.365268	0.852658	-3.99	16.31	-4.9	0.0175	0.0293	-0.5278	
-0.323788	0.358558	0.848144	2.73	18.62	-6.37	0.0218	0.0323	-0.5293	
-0.3355	0.360266	0.848388	6.02	17.43	-5.81	0.0176	0.0248	-0.5233	
-0.3416	0.364536	0.843264	2.73	9.94	-5.53	0.0247	0.0369	-0.5232	
-0.3477	0.355264	0.840092	-1.4	0.63	-4.76	0.019	0.0293	-0.5278	
-0.340624	0.3538	0.851438	-0.77	-5.32	-3.36	0.0276	0.0261	-0.5385	
-0.325496	0.35502	0.865712	1.12	-6.93	-3.15	0.0146	0.0355	-0.5248	
-0.325618	0.337818	0.869372	1.4	-4.55	-1.82	0.0219	0.0293	-0.5263	
-0.322324	0.33977	0.872178	2.87	-4.06	-0.14	0.022	0.0247	-0.5217	
-0.319396	0.344406	0.872422	2.17	-6.37	-0.42	0.019	0.0324	-0.5263	
-0.325618	0.340136	0.879376	3.36	-6.16	2.17	0.019	0.0294	-0.5202	
-0.332572	0.333304	0.869616	4.27	-4.83	3.99	0.0204	0.0262	-0.5339	
-0.330498	0.345504	0.859124	3.15	-5.74	4.41	0.0161	0.0309	-0.5217	
-0.327814	0.352458	0.85888	1.19	-8.68	5.25	0.0088	0.0279	-0.5325	
-0.31842	0.36234	0.864492	1.75	-12.32	6.65	0.022	0.0201	-0.5217	
-0.31598	0.36173	0.866444	3.43	-13.93	8.33	0.0001	0.0403	-0.5218	
-0.30805	0.36234	0.866078	2.24	-14.35	9.03	0.0104	0.0203	-0.5248	
-0.308294	0.364902	0.867908	2.66	-15.33	8.68	0.0047	0.0188	-0.5234	
-0.312808	0.35746	0.866322	1.33	-18.27	7.77	0.0062	0.0142	-0.5234	
-0.307562	0.361364	0.86498	-0.56	-22.26	9.1	-0.0012	0.0311	-0.531	
-0.290238	0.365756	0.86254	-1.4	-28	9.38	-0.0011	0.0219	-0.5341	
-0.272914	0.361974	0.87169	-10.15	-32.06	9.66	-0.0025	0.0189	-0.5295	
-0.257786	0.358436	0.877668	-11.13	-33.04	10.36	-0.0141	0.0221	-0.5296	
-0.250222	0.344284	0.876448	0.21	-33.46	9.8	-0.0242	0.0284	-0.5128	
-0.242048	0.3355	0.88084	-7.35	-31.78	10.5	-0.0301	0.0269	-0.5312	
-0.23058	0.345382	0.880352	-2.94	-33.81	12.18	-0.0331	0.0346	-0.5282	
-0.220332	0.351238	0.88206	0.56	-38.85	14.35	-0.0301	0.0223	-0.5282	
-0.21045	0.36478	0.885476	-3.15	-48.51	17.85	-0.0489	0.0226	-0.5268	
-0.172874	0.368196	0.893284	-3.64	-53.9	15.05	-0.0562	0.0257	-0.5283	
-0.15494	0.35685	0.891942	1.33	-49.7	13.93	-0.072	0.0275	-0.5147	
-0.136396	0.35807	0.895724	1.61	-49.28	12.74	-0.0693	0.0305	-0.5284	
-0.11224	0.35746	0.91866	0.77	-52.92	15.19	-0.0794	0.0322	-0.5254	
-0.075274	0.403332	0.955016	-7.63	-63.7	16.59	-0.101	0.0264	-0.5225	
-0.054656	0.370514	0.992348	-13.65	-51.38	14.42	-0.0953	0.0309	-0.524	
-0.029646	0.365512	0.95953	-9.66	-45.99	10.57	-0.1083	0.0341	-0.521	
-0.027694	0.330986	0.930128	-15.05	-41.23	8.75	-0.1141	0.0372	-0.5165	
-0.006588	0.330498	0.934032	-14.84	-45.57	14.91	-0.1214	0.0404	-0.5104	
-0.00732	0.337574	0.92171	-13.09	-48.23	22.26	-0.1329	0.0344	-0.5166	
-0.003538	0.333914	0.926346	-20.72	-52.22	20.86	-0.1432	0.0438	-0.5121	
-0.005612	0.405772	0.919392	-12.88	-47.18	18.69	-0.1475	0.0407	-0.5197	
-0.016226	0.380884	0.867298	-7.84	-48.79	9.94	-0.1592	0.0531	-0.5137	
0.003538	0.348066	0.882304	-13.79	-59.57	0.56	-0.1591	0.0486	-0.5091	
0.07503	0.355752	0.906216	-26.18	-64.82	-3.43	-0.1663	0.0502	-0.503	
0.228384	0.359412	0.905118	-26.11	-71.33	-6.37	-0.1866	0.0459	-0.5032	
0.339526	0.36783	0.966362	-27.58	-66.01	-3.5	-0.1925	0.0674	-0.491	
0.322202	0.295362	0.974536	2.03	-52.5	-15.33	-0.2027	0.0706	-0.488	
0.188368	0.227774	0.948306	12.32	-20.51	-15.89	-0.2127	0.0646	-0.4865	
0.15494	0.231434	0.91073	15.4	-17.08	-7.91	-0.217	0.0586	-0.4896	
0.167018	0.25864	0.898286	13.16	-24.71	-1.12	-0.2213	0.0587	-0.4774	
0.180072	0.24949	0.91378	5.67	-31.15	2.73	-0.2183	0.051	-0.4835	
0.258274	0.270596	0.901458	-2.31	-28.7	12.6	-0.2241	0.0526	-0.4744	
0.256078	0.298046	0.935984	-5.18	-32.34	5.81	-0.2328	0.0512	-0.4745	
0.221064	0.265106	0.920734	-1.68	-23.45	8.12	-0.2299	0.0557	-0.4729	
0.23058	0.290116	0.889502	-1.75	-10.78	11.62	-0.2343	0.0604	-0.4684	
0.246562	0.271938	0.884134	-2.31	-5.88	9.17	-0.2415	0.0528	-0.4806	
0.2806	0.31293	0.879498	0.77	-3.15	9.1	-0.2358	0.065	-0.4745	
0.275842	0.298168	0.884012	0.07	0.7	11.62	-0.2401	0.062	-0.476	
0.29829	0.328302	0.882548	0.91	-0.07	15.61	-0.24	0.0513	-0.473	
0.307562	0.365146	0.868884	4.76	-2.73	15.19	-0.2532	0.0621	-0.4731	
0.268034	0.358436	0.868518	4.13	-7.07	10.36	-0.2474	0.0621	-0.4715	
0.237046	0.34343	0.87047	5.04	-7.14	7.49	-0.2417	0.0635	-0.4837	
0.2379	0.344894	0.869494	4.48	-5.67	3.22	-0.2386	0.0604	-0.4699	
0.247172	0.342576	0.868396	3.01	-5.67	-1.12	-0.24	0.0559	-0.4684	
0.256322	0.33184	0.877302	0.7	-7.21	-7.21	-0.2415	0.0574	-0.473	
0.26169	0.302072	0.881328	0.14	-5.04	-7.84	-0.2445	0.062	-0.4837	
0.279502	0.302194	0.887794	1.89	-4.41	-6.16	-0.2343	0.0604	-0.4638	
0.289262	0.290726	0.898896	-0.14	-6.09	-5.11	-0.2415	0.0605	-0.4669	
0.294508	0.280234	0.901702	-1.96	-5.6	-2.94	-0.2501	0.0514	-0.4715	
0.292556	0.287432	0.900848	-1.75	-1.19	0.21	-0.2487	0.0529	-0.4731	
0.280356	0.302926	0.889136	-1.54	4.48	2.52	-0.2444	0.059	-0.473	
0.267058	0.313784	0.883524	-1.96	6.09	3.57	-0.2429	0.0544	-0.4745	
0.258152	0.315126	0.881328	-2.31	3.78	3.43	-0.2386	0.0574	-0.476	
0.25864	0.314638	0.882182	-1.4	1.75	3.5	-0.2502	0.0575	-0.4669	
0.256444	0.30927	0.894382	0.21	2.1	3.85	-0.2329	0.0604	-0.4699	
0.254736	0.306586	0.89426	-1.68	2.17	4.2	-0.2358	0.0665	-0.4714	
0.269498	0.311222	0.897432	-3.64	2.1	3.36	-0.2445	0.06659999	-0.4699	
0.25254	0.286822	0.899994	-2.94	2.38	4.69	-0.2459	0.0605	-0.4745	
0.24888	0.302072	0.898164	-1.47	2.38	2.94	-0.2501	0.0514	-0.47	
0.251564	0.301828	0.885476	-2.66	3.36	3.29	-0.2314	0.0603	-0.476	
0.244854	0.293898	0.882792	-1.33	5.32	0.63	-0.243	0.0574	-0.4806	
0.241682	0.29768	0.88267	-0.7	6.09	0.42	-0.2401	0.0589	-0.4669	
0.243268	0.304268	0.894504	-3.01	3.43	-1.47	-0.2343	0.0573	-0.4684	
0.25071	0.299632	0.90097	-3.85	3.5	-1.82	-0.2373	0.065	-0.4729	
0.253882	0.298778	0.904508	-4.34	5.46	-3.43	-0.233	0.0695	-0.4714	
0.259494	0.290726	0.909876	-4.2	7.63	-3.78	-0.2373	0.0696	-0.4638	
0.25925	0.279746	0.906704	-4.2	9.8	-2.8	-0.2432	0.0696	-0.4791	
0.26718	0.28853	0.89914	-4.13	11.2	-0.63	-0.2345	0.068	-0.4851	
0.2684	0.282918	0.905972	-4.62	9.87	1.61	-0.2357	0.0543	-0.476	
0.25193	0.278404	0.907558	-4.27	8.33	5.39	-0.2273	0.0709	-0.482	
0.242414	0.285602	0.896334	-6.86	7.42	7.56	-0.2287	0.0725	-0.479	
0.233386	0.274988	0.905728	-23.03	3.78	5.04	-0.2389	0.0818	-0.4744	
0.221308	0.276818	0.915	-12.88	3.29	5.39	-0.2361	0.0772	-0.4851	
0.213988	0.263642	0.913292	-4.48	9.38	8.33	-0.2301	0.0756	-0.4683	
0.22204	0.282918	0.911584	-2.31	10.64	6.58	-0.217	0.0678	-0.4682	
0.209962	0.28121	0.918904	-2.31	10.22	5.04	-0.226	0.0832	-0.4789	
0.199958	0.277916	0.91927	-3.92	7.07	4.97	-0.2244	0.077	-0.4805	
0.205448	0.282918	0.918172	-6.09	3.22	4.13	-0.2274	0.0817	-0.4744	
0.202032	0.26474	0.92354	-8.82	1.68	-0.28	-0.2173	0.0769	-0.4896	
0.198128	0.267302	0.956602	-6.02	8.12	-2.17	-0.2231	0.0862	-0.4728	
0.210084	0.259494	0.94184	-4.41	16.52	-3.22	-0.2188	0.083	-0.485	
0.219356	0.25437	0.92354	-4.13	16.31	-4.62	-0.2216	0.08	-0.4804	
0.208742	0.254248	0.93086	-5.46	12.53	-2.8	-0.2158	0.083	-0.4804	
0.201178	0.25986	0.935496	-7.07	11.41	-1.26	-0.2072	0.0875	-0.4864	
0.192028	0.257542	0.936716	-6.51	11.34	-1.89	-0.2117	0.0982	-0.4849	
0.18971	0.25498	0.931714	-4.13	12.6	-1.12	-0.213	0.0845	-0.4804	
0.1952	0.260836	0.9211	-4.34	12.11	-0.14	-0.2115	0.0829	-0.488	
0.188856	0.260836	0.925858	-6.02	9.1	-2.03	-0.2072	0.0906	-0.4788	
0.181414	0.259128	0.929274	-6.02	9.31	-2.8	-0.2015	0.0889	-0.4848	
0.173606	0.262788	0.930372	-4.27	10.08	-3.5	-0.1985	0.0858	-0.4848	
0.166164	0.256566	0.927566	-2.38	10.29	-4.62	-0.2016	0.0981	-0.4818	
0.156526	0.238266	0.938668	-0.49	9.73	-5.18	-0.203	0.09959999	-0.4864	
0.168848	0.257298	0.942694	-0.14	8.75	-3.71	-0.1986	0.0919	-0.4909	
0.174338	0.265472	0.942206	-2.73	5.46	-5.11	-0.1957	0.0888	-0.4924	
0.155794	0.253272	0.947696	-3.29	3.22	-6.37	-0.1941	0.0827	-0.4802	
0.133346	0.237046	0.95282	-2.31	3.29	-6.65	-0.1914	0.0964	-0.4848	
0.139202	0.237656	0.939278	-1.12	5.25	-5.67	-0.1988	0.09649999	-0.5016	
0.151646	0.240706	0.939522	-1.47	4.34	-5.46	-0.1856	0.0872	-0.4939	
0.160796	0.24034	0.949038	-4.13	2.52	-4.97	-0.1958	0.098	-0.4833	
0.15433	0.2196	0.96746	-4.69	0.77	-3.5	-0.1958	0.1026	-0.4756	
0.139934	0.199348	0.96868	-3.71	2.31	-0.63	-0.1898	0.08419999	-0.4848	
0.14396	0.222406	0.96014	-3.43	3.36	4.2	-0.1972	0.09339999	-0.4879	
0.156648	0.253028	0.946354	-5.32	3.29	6.44	-0.1986	0.092	-0.4833	
0.150426	0.246318	0.93086	-5.67	0.98	2.8	-0.1857	0.0979	-0.4878	
0.137982	0.232898	0.930616	-7.28	0.77	0.7	-0.19	0.101	-0.4847	
0.153598	0.23851	0.92415	-7.42	1.82	1.33	-0.1871	0.0948	-0.4863	
0.176656	0.225822	0.926712	-7.35	0.56	1.54	-0.1929	0.1057	-0.4756	
0.181536	0.213988	0.938668	-7.98	3.36	1.05	-0.1972	0.095	-0.4817	
0.18788	0.220454	0.95709	-7	5.81	2.17	-0.1944	0.1057	-0.4786	
0.179462	0.208864	0.953064	-4.97	10.5	4.34	-0.1899	0.0888	-0.4817	
0.161284	0.207644	0.937936	-3.08	9.45	4.48	-0.1989	0.1103	-0.4893	
0.139446	0.194346	0.930738	-3.15	9.38	6.09	-0.1871	0.0979	-0.4908	
0.14945	0.210938	0.931226	-3.08	10.22	7.14	-0.1787	0.113	-0.4938	
0.156892	0.219112	0.934398	0.28	13.86	6.86	-0.1786	0.1131	-0.4892	
0.136518	0.215086	0.937082	8.89	18.55	4.27	-0.1771	0.1039	-0.4938	
0.107726	0.228262	0.94611	16.52	21	3.78	-0.1799	0.1055	-0.4816	
0.066856	0.23485	0.950624	20.02	21.07	3.64	-0.1727	0.1038	-0.4816	
0.049044	0.243146	0.957334	19.46	16.17	2.73	-0.1728	0.1069	-0.4938	
0.0549	0.248392	0.971486	8.05	11.55	1.12	-0.1611	0.099	-0.4983	
0.081496	0.260836	0.9638	2.1	8.68	0	-0.1699	0.0991	-0.5045	
0.083448	0.24827	0.960872	-1.4	5.67	-1.47	-0.1612	0.1006	-0.4998	
0.084668	0.243146	0.95099	-2.24	6.23	-3.71	-0.1525	0.1005	-0.5013	
0.089914	0.240462	0.93818	-0.7	7.42	-3.43	-0.1568	0.1036	-0.4952	
0.083204	0.235704	0.940864	0.07	7.35	-2.94	-0.1581	0.0929	-0.4906	
0.081862	0.254126	0.941962	1.89	8.19	-1.54	-0.1524	0.09429999	-0.5074	
0.065514	0.242414	0.953064	2.03	5.88	-1.75	-0.1668	0.08989999	-0.5029	
0.055876	0.22936	0.96563	0.28	2.38	-1.96	-0.1597	0.099	-0.5059	
0.075274	0.233874	0.970022	-2.1	0.28	-0.07	-0.1611	0.1006	-0.4906	
0.091012	0.23424	0.963068	-2.94	1.19	0.35	-0.1583	0.1005	-0.5028	
0.095038	0.244	0.955016	-2.17	3.92	-0.35	-0.1554	0.102	-0.4967	
0.08235	0.240096	0.951234	-2.31	6.93	-1.19	-0.1625	0.0914	-0.4983	
0.06527	0.226432	0.94306	-0.63	8.68	-1.19	-0.1552	0.0913	-0.4967	
0.064538	0.235338	0.9272	0.35	7.7	-1.47	-0.1481	0.0927	-0.5028	
0.066612	0.24339	0.928908	-0.14	4.62	-1.26	-0.1567	0.096	-0.4906	
0.06405	0.244122	0.93086	0.07	0.91	-1.54	-0.1409	0.0972	-0.5012	
0.04819	0.22753	0.943914	1.33	-2.17	-2.17	-0.1567	0.0929	-0.5044	
0.058316	0.233752	0.955748	0.35	-4.55	-1.19	-0.1465	0.0897	-0.4997	
0.07076	0.241682	0.96075	0.28	-5.74	-0.77	-0.1596	0.0929	-0.5013	
0.066002	0.228628	0.967948	-0.63	-4.06	-1.61	-0.1582	0.0944	-0.4998	
0.073932	0.229482	0.974902	-0.77	-0.77	-0.49	-0.1598	0.1051	-0.5044	
0.078934	0.23668	0.96807	-1.54	1.26	0.21	-0.1612	0.1052	-0.5013	
0.073688	0.23546	0.958066	-2.45	1.96	0.91	-0.1611	0.0975	-0.5029	
0.069052	0.23912	0.950258	-2.24	2.45	1.12	-0.1567	0.0975	-0.4922	
0.06588	0.238998	0.945134	-2.1	1.26	0.84	-0.151	0.1004	-0.4997	
0.073322	0.244488	0.940376	-1.4	-0.56	0.14	-0.1494	0.0882	-0.4891	
0.068442	0.233874	0.941108	-2.1	-1.89	-1.26	-0.1553	0.0929	-0.4967	
0.076738	0.236314	0.943548	-2.1	-2.24	-1.61	-0.1582	0.0944	-0.5074	
0.07991	0.227774	0.947086	-1.68	-2.17	-1.33	-0.1539	0.1036	-0.4906	
0.085888	0.232776	0.951844	-0.49	-2.24	-0.98	-0.151	0.09739999	-0.5059	
0.08418	0.230214	0.960628	-0.21	-2.17	0.42	-0.1554	0.0989	-0.5089	
0.083814	0.238754	0.956968	-0.56	-2.1	1.05	-0.1596	0.0929	-0.5029	
0.075274	0.238266	0.958554	-0.77	-1.96	1.4	-0.1511	0.1035	-0.4982	
0.07808	0.24278	0.956968	-2.03	-2.45	1.19	-0.1496	0.105	-0.4906	
0.07515199	0.23668	0.955626	-2.17	-2.24	0.56	-0.1626	0.1021	-0.4983	
0.080032	0.239242	0.9516	-2.24	-2.24	-0.49	-0.1626	0.0991	-0.4952	
0.073444	0.235094	0.94306	-3.29	-2.52	-2.03	-0.1597	0.1021	-0.4983	
0.068198	0.22814	0.942084	-3.99	-3.99	-2.03	-0.1537	0.0959	-0.4814	
0.078202	0.231678	0.936472	-3.78	-5.81	-1.96	-0.1668	0.0961	-0.4861	
0.082106	0.2257	0.942084	-1.05	-7.14	-3.15	-0.1611	0.0991	-0.4952	
0.08662	0.22692	0.942206	-0.63	-6.23	-2.03	-0.1626	0.1006	-0.4907	
0.079666	0.22265	0.95587	-0.7	-7.7	-3.22	-0.1627	0.1036	-0.5013	
0.076738	0.223626	0.971486	-1.19	-9.8	-1.47	-0.1639	0.09299999	-0.4892	
0.08601	0.238388	0.975024	-2.38	-12.32	-0.91	-0.164	0.0945	-0.4968	
0.09089	0.247538	0.980758	-2.87	-11.97	-0.84	-0.1711	0.0916	-0.4907	
0.099064	0.246806	0.972462	-5.6	-11.2	-1.89	-0.1727	0.0977	-0.4923	
0.10553	0.229238	0.959774	-8.96	-10.29	-2.87	-0.1771	0.1084	-0.4938	
0.12932	0.227042	0.941962	-13.65	-10.36	-2.94	-0.1786	0.1054	-0.5014	
0.112118	0.206668	0.931714	-14.07	-11.48	-4.27	-0.183	0.1131	-0.4923	





0.154818	0.189832	0.94977	-13.23	-23.45	-2.73	-0.1932	0.1209	-0.4847	
0.180926	0.166774	0.972828	-0.49	-5.88	-8.12	-0.2164	0.1304	-0.4726	
0.186538	0.167628	0.9821	-0.28	-3.57	-6.65	-0.2091	0.1227	-0.4772	
0.18544	0.177144	0.98637	0	-2.31	-5.11	-0.2076	0.1227	-0.4756	
0.165798	0.179584	0.98332	-0.35	-0.42	-5.04	-0.209	0.1212	-0.4695	
0.14823	0.178364	0.97173	-0.77	2.94	-4.97	-0.2046	0.1135	-0.4695	
0.151036	0.18117	0.96624	-2.1	4.83	-5.25	-0.2046	0.1196	-0.4695	
0.15494	0.17019	0.962214	-5.46	4.41	-6.65	-0.212	0.1273	-0.4726	
0.164578	0.157746	0.956846	-7.63	3.36	-7.07	-0.2047	0.1272	-0.471	
0.169336	0.141276	0.942328	-8.05	4.27	-5.81	-0.2076	0.1226	-0.4802	
0.171166	0.13359	0.934032	-7.42	5.39	-3.5	-0.2089	0.1089	-0.4803	
0.172264	0.137616	0.954528	-4.06	5.32	-0.14	-0.2149	0.1227	-0.4818	
0.171776	0.13786	0.951112	-1.05	5.46	2.59	-0.2047	0.1226	-0.4802	
0.155794	0.1464	0.956236	-0.21	5.18	4.55	-0.2092	0.1272	-0.4833	
0.133102	0.157502	0.951844	-0.84	3.01	5.39	-0.2046	0.115	-0.4787	
0.121268	0.166042	0.94977	-2.1	-0.21	5.18	-0.2076	0.1227	-0.4772	
0.125172	0.174094	0.943182	-2.66	-2.03	3.43	-0.2018	0.1211	-0.4725	
0.138226	0.176412	0.938546	-3.5	-2.38	0.63	-0.1975	0.121	-0.4801	
0.1464	0.170922	0.939766	-3.78	-1.54	-2.59	-0.212	0.1227	-0.4818	
0.155428	0.16104	0.948306	-2.73	-1.89	-4.69	-0.2003	0.118	-0.4802	
0.164212	0.152378	0.957334	-1.4	-3.15	-4.13	-0.2004	0.1241	-0.4756	
0.167262	0.155306	0.96441	-1.68	-5.88	-3.22	-0.2033	0.1226	-0.4756	
0.166042	0.162016	0.967216	-2.24	-7.7	-2.8	-0.2092	0.1334	-0.471	
0.163724	0.164334	0.965874	-2.8	-7.56	-2.87	-0.2062	0.1349	-0.4649	
0.169092	0.157502	0.959652	-2.73	-4.9	-3.22	-0.2048	0.1257	-0.4771	
0.173362	0.14945	0.952942	-2.17	-1.89	-3.5	-0.2048	0.1303	-0.4756	
0.173606	0.141764	0.950746	-1.82	-0.42	-2.94	-0.209	0.1258	-0.4665	
0.177022	0.137738	0.943914	-1.54	-0.28	-2.17	-0.2019	0.1287	-0.474	
0.17873	0.13786	0.934764	-1.12	-0.21	-1.61	-0.2005	0.1317	-0.4725	
0.175192	0.135176	0.931104	0.21	0.35	-1.4	-0.2034	0.1364	-0.4664	
0.172874	0.140422	0.935496	2.8	0.63	-0.77	-0.2164	0.1273	-0.4787	
0.163968	0.14396	0.94855	5.6	-0.28	0.49	-0.212	0.1273	-0.4665	
0.160308	0.152378	0.963922	6.79	-2.45	2.03	-0.2076	0.1227	-0.471	
0.155062	0.158966	0.971608	5.04	-4.76	2.73	-0.2135	0.1335	-0.468	
0.149328	0.167018	0.976976	2.59	-5.95	2.31	-0.2162	0.1197	-0.4681	
0.147864	0.17202	0.975146	0.21	-5.25	0.84	-0.2177	0.1213	-0.4757	
0.153232	0.171532	0.970388	-1.12	-2.87	-1.12	-0.2149	0.1258	-0.4741	
0.161894	0.16348	0.962214	-1.47	0.07	-3.01	-0.2163	0.1197	-0.4757	
0.169946	0.153232	0.95404	-1.26	1.75	-3.57	-0.2235	0.1213	-0.4727	
0.178364	0.148596	0.950136	-1.19	0.98	-3.08	-0.2148	0.1182	-0.4757	
0.181292	0.14762	0.94428	-1.12	-0.63	-1.96	-0.212	0.1258	-0.4711	
0.182268	0.149694	0.941718	-1.4	-2.31	-1.26	-0.2076	0.1211	-0.471	
0.183488	0.1525	0.939888	-0.84	-2.24	-0.98	-0.2177	0.1213	-0.4726	
0.185806	0.150304	0.941108	0.77	-1.12	-0.14	-0.2135	0.135	-0.4741	
0.182634	0.15006	0.949526	1.96	-0.49	0	-0.2105	0.1196	-0.4833	
0.179828	0.154086	0.955382	2.66	-0.21	0.91	-0.2103	0.1151	-0.4619	
0.178608	0.159088	0.956358	2.87	-0.42	1.75	-0.2177	0.1228	-0.465	
0.175558	0.161406	0.959408	2.17	-0.49	1.89	-0.2119	0.1243	-0.4695	
0.1708	0.164822	0.958066	1.12	0.07	1.54	-0.2191	0.1183	-0.462	
0.171532	0.16592	0.958432	0.63	0.49	0.91	-0.2148	0.1197	-0.4711	
0.16775	0.162992	0.953186	0	1.12	0.21	-0.2061	0.1165	-0.4787	
0.16897	0.163114	0.954162	-0.63	1.12	0.07	-0.2104	0.1181	-0.468	
0.172264	0.169092	0.959164	0.14	0.49	-0.28	-0.2133	0.1182	-0.4696	
0.165554	0.1586	0.960262	0.07	0	-0.56	-0.2265	0.1229	-0.4803	
0.170434	0.165554	0.95648	-0.7	0.07	-0.7	-0.2105	0.1227	-0.4711	
0.166286	0.157014	0.956358	-1.33	0.21	-1.19	-0.2134	0.1258	-0.4726	
0.171166	0.164822	0.958432	-0.84	0.42	-0.84	-0.2106	0.1242	-0.4817	
0.17019	0.156892	0.949892	-1.4	0.14	-1.12	-0.225	0.1229	-0.4712	
0.168848	0.160064	0.958066	-0.28	-0.56	-1.12	-0.2148	0.1228	-0.4696	
0.169458	0.160796	0.951478	0.14	-0.21	-1.19	-0.2236	0.1321	-0.4681	
0.170922	0.158234	0.950258	-0.28	0.14	-1.05	-0.2104	0.1104	-0.4818	
0.17019	0.159454	0.950624	-0.21	-0.7	-1.47	-0.2091	0.1196	-0.4818	
0.170312	0.160186	0.954406	-0.42	-1.33	-1.4	-0.2119	0.1166	-0.4772	
0.178486	0.16531	0.95953	-0.77	-2.03	-1.12	-0.2162	0.1151	-0.4696	
0.175314	0.162992	0.961238	-1.26	-1.68	-2.24	-0.2046	0.1165	-0.4726	
0.173362	0.161772	0.956846	-1.26	0.21	-2.31	-0.2119	0.1212	-0.4711	
0.169946	0.158356	0.95648	-1.19	1.33	-3.01	-0.2033	0.1272	-0.4649	
0.172386	0.161406	0.959286	-1.19	0.84	-2.52	-0.2134	0.1212	-0.4711	
0.174948	0.16165	0.958676	-1.89	-0.63	-2.24	-0.2235	0.1214	-0.4681	
0.170434	0.159698	0.955748	-2.87	-1.61	-1.89	-0.2119	0.1197	-0.468	
0.170556	0.162992	0.949282	-3.5	-2.03	-1.82	-0.2235	0.1183	-0.4788	
0.167628	0.155428	0.948672	-2.59	-2.45	-2.24	-0.2222	0.129	-0.4772	
0.169214	0.155794	0.95343	-1.82	-3.78	-1.96	-0.2149	0.1304	-0.468	
0.172996	0.15128	0.956968	-2.24	-5.25	-1.54	-0.2162	0.1151	-0.4727	
0.181902	0.152866	0.95709	-3.08	-6.37	-1.05	-0.2062	0.1287	-0.4756	
0.18483	0.152378	0.955626	-4.2	-6.65	-1.05	-0.2031	0.115	-0.4573	
0.18666	0.152012	0.951844	-4.06	-5.11	-1.19	-0.2206	0.1229	-0.465	
0.189954	0.149816	0.949526	-3.78	-3.92	-1.82	-0.2207	0.1213	-0.4818	
0.18849	0.14396	0.950014	-3.08	-3.22	-2.45	-0.2177	0.1228	-0.4726	
0.188978	0.143716	0.949282	-2.73	-3.64	-1.89	-0.2206	0.1305	-0.4574	
0.189832	0.143472	0.949282	-2.66	-4.27	-1.19	-0.2162	0.1213	-0.4635	
0.191418	0.140544	0.951478	-3.43	-5.11	-0.49	-0.222	0.1229	-0.4635	
0.193492	0.141276	0.950746	-4.06	-5.46	-0.91	-0.2207	0.1305	-0.4726	
0.19032	0.139202	0.95221	-2.94	-3.99	-1.54	-0.2133	0.1212	-0.4665	
0.187514	0.128954	0.952698	-3.29	-2.03	-2.17	-0.2221	0.129	-0.4604	
0.196054	0.144936	0.951356	-1.47	-0.35	-1.89	-0.2308	0.1276	-0.4712	
0.19093	0.13298	0.947208	-0.84	-0.07	-2.73	-0.2178	0.132	-0.4604	
0.193736	0.13725	0.951966	-0.98	-0.35	-1.89	-0.2279	0.126	-0.4681	
0.191174	0.138592	0.951844	-2.17	-1.75	-1.68	-0.2222	0.1366	-0.4604	
0.193004	0.141886	0.957456	-2.94	-2.87	-1.54	-0.2293	0.1214	-0.4712	
0.194224	0.140666	0.96075	-3.57	-1.89	-2.38	-0.2367	0.1338	-0.4666	
0.192516	0.140056	0.95587	-3.64	-0.35	-3.71	-0.2279	0.129	-0.4727	
0.19276	0.138348	0.951722	-2.94	1.12	-3.64	-0.2237	0.1336	-0.4726	
0.190198	0.13359	0.9455	-2.59	1.61	-3.01	-0.2235	0.1321	-0.4528	
0.1952	0.139568	0.95221	-1.75	-1.61	-2.66	-0.2192	0.129	-0.4604	
0.194346	0.134078	0.949892	-2.94	-3.29	-0.77	-0.2222	0.1336	-0.465	
0.198128	0.128588	0.95648	-3.5	-6.51	-0.35	-0.2264	0.1275	-0.4605	
0.206546	0.135664	0.948672	-3.71	-6.51	-0.56	-0.2207	0.132	-0.465	
0.202398	0.1159	0.947452	-4.48	-3.78	-1.26	-0.2294	0.1352	-0.462	
0.210938	0.125172	0.941108	-2.52	0	-2.73	-0.2206	0.1275	-0.4604	
0.213012	0.131272	0.944402	0.14	2.94	-0.91	-0.2352	0.1322	-0.4743	
0.214232	0.14152	0.947696	-1.26	-0.98	0.91	-0.2365	0.1277	-0.4621	
0.210572	0.142008	0.948428	-3.71	-5.46	3.36	-0.2293	0.1245	-0.462	
0.203618	0.121146	0.9516	-5.53	-8.61	1.61	-0.2279	0.1306	-0.465	
0.213988	0.106018	0.950258	-5.32	-6.02	-1.05	-0.2265	0.1306	-0.465	
0.220576	0.105652	0.95221	-1.05	0.49	-0.14	-0.2279	0.1306	-0.462	
0.212036	0.122854	0.956724	1.89	3.78	2.73	-0.2309	0.1383	-0.4605	
0.199104	0.136396	0.951356	0.77	1.33	4.69	-0.2308	0.1337	-0.4635	
0.190564	0.134566	0.959774	-0.14	-5.04	3.99	-0.2396	0.1338	-0.4682	
0.197396	0.125904	0.950624	-3.22	-6.37	1.82	-0.2265	0.1352	-0.4559	
0.2074	0.117242	0.956602	-4.41	-4.55	0.07	-0.2309	0.1352	-0.4635	
0.210938	0.119926	0.954772	-3.43	-0.77	-0.84	-0.2278	0.1291	-0.4574	
0.205326	0.11773	0.94489	-2.8	1.82	-1.05	-0.2367	0.1414	-0.462	
0.213988	0.119682	0.94733	-0.56	1.54	-1.19	-0.2339	0.1506	-0.4559	
0.215574	0.11041	0.93086	-1.26	-0.28	-1.75	-0.2324	0.1414	-0.462	
0.215086	0.118706	0.945988	0.07	-2.03	-0.98	-0.2338	0.1398	-0.4666	
0.209596	0.11712	0.959774	0.21	-2.73	-0.77	-0.238	0.1323	-0.4529	
0.211548	0.114436	0.959652	-0.63	-2.52	-0.35	-0.2409	0.1308	-0.459	
0.215452	0.115656	0.949038	-1.61	-2.52	0.42	-0.2438	0.1339	-0.4453	
0.214842	0.11285	0.943426	-1.54	-1.89	-0.56	-0.2426	0.1445	-0.4636	
0.22204	0.115656	0.943182	0.14	-1.05	1.19	-0.2337	0.1307	-0.4575	
0.220088	0.11773	0.949038	0.98	-1.4	1.33	-0.2366	0.1415	-0.4513	
0.219478	0.118828	0.947574	0.07	-1.82	1.19	-0.2425	0.1384	-0.4605	
0.224114	0.11651	0.939888	-0.77	-1.12	0.56	-0.2335	0.1231	-0.4498	
0.224358	0.114192	0.936228	-0.7	0.14	-0.28	-0.2352	0.1384	-0.4544	
0.22326	0.120536	0.94489	1.82	1.68	-0.63	-0.2409	0.1292	-0.4651	
0.214598	0.112728	0.944768	2.38	1.4	-0.91	-0.2366	0.1399	-0.4498	
0.213988	0.11895	0.947696	2.87	0.98	-0.49	-0.2439	0.1385	-0.456	
0.211548	0.123098	0.955992	2.03	1.68	-1.05	-0.2337	0.1338	-0.4513	
0.209108	0.122122	0.960628	1.68	1.89	-1.47	-0.2423	0.1324	-0.4483	
0.214354	0.12383	0.956968	0.98	1.33	-0.77	-0.2366	0.1307	-0.459	
0.216916	0.120902	0.955138	0.49	0.63	-0.56	-0.2351	0.1292	-0.4544	
0.21716	0.121268	0.952454	0.77	0.98	-0.07	-0.2394	0.1292	-0.4575	
0.211548	0.115534	0.95465	1.26	0.77	0.56	-0.2294	0.1352	-0.4559	
0.213866	0.12017	0.948184	1.33	0.56	0.63	-0.2366	0.1322	-0.4636	
0.213378	0.11773	0.940132	0.35	0.7	0.07	-0.2251	0.1398	-0.4528	
0.214476	0.119316	0.931104	0	1.47	-0.07	-0.2352	0.1399	-0.4544	
0.21289	0.120048	0.933666	0.84	1.82	-0.77	-0.2352	0.1384	-0.4544	
0.211304	0.124684	0.942694	3.5	3.22	-0.63	-0.2309	0.1368	-0.4605	
0.207522	0.126148	0.956968	4.34	3.08	-0.35	-0.238	0.1216	-0.4682	
0.205692	0.130296	0.96685	3.71	1.68	0.42	-0.2336	0.1246	-0.4666	
0.205082	0.135054	0.968558	1.96	0.21	0.7	-0.2265	0.1306	-0.4681	
0.206546	0.134444	0.96502	0.7	-0.28	0.98	-0.2336	0.1307	-0.4544	
0.208742	0.133712	0.959164	0	-0.49	1.05	-0.235	0.1215	-0.459	
0.210816	0.130052	0.952576	-0.35	-0.77	1.33	-0.2381	0.1307	-0.4666	
0.213622	0.12688	0.94611	-0.28	-1.05	1.54	-0.2323	0.1352	-0.4681	
0.212524	0.125172	0.942572	0.21	-0.77	1.4	-0.2294	0.1414	-0.4528	
0.210694	0.126636	0.942328	0.7	0.21	0.98	-0.2381	0.1322	-0.4697	
0.21045	0.13054	0.94062	0.91	1.05	0.42	-0.2352	0.1322	-0.462	
0.210694	0.129442	0.943426	1.12	1.47	-0.21	-0.241	0.14	-0.4605	
0.208986	0.130052	0.946842	1.47	1.75	-0.84	-0.2352	0.1383	-0.4605	
0.207522	0.128832	0.95038	1.54	1.47	-1.19	-0.2381	0.1353	-0.4605	
0.207888	0.12932	0.950258	1.4	0.98	-1.05	-0.2352	0.1322	-0.4666	
0.209718	0.130418	0.952332	0.77	0.42	-1.33	-0.2308	0.1322	-0.4605	
0.208986	0.127002	0.952454	0.77	0.91	-1.19	-0.2249	0.1275	-0.4574	
0.208864	0.130418	0.952698	1.12	1.4	-1.05	-0.2292	0.1261	-0.4529	
0.2074	0.131028	0.95343	1.47	1.47	-0.42	-0.2365	0.1261	-0.4605	
0.206424	0.134078	0.95221	1.26	1.12	0.21	-0.225	0.126	-0.465	
0.204838	0.13298	0.953674	0.49	0.28	0.49	-0.2338	0.1352	-0.4712	
0.204106	0.134078	0.953918	0.14	-0.35	0.7	-0.2335	0.1185	-0.4544	
0.20435	0.133468	0.954284	-0.14	-0.98	0.91	-0.2351	0.1292	-0.462	
0.20435	0.135542	0.953674	-0.14	-1.61	1.12	-0.2336	0.1276	-0.459	
0.207034	0.135786	0.954162	-0.21	-2.17	0.98	-0.2396	0.1353	-0.4651	
0.205936	0.131638	0.954894	0.07	-2.17	0.84	-0.2293	0.126	-0.4605	
0.207522	0.135664	0.953674	0.7	-1.75	0.84	-0.2366	0.1322	-0.4682	
0.20923	0.13786	0.951966	0.91	-1.96	0.98	-0.2366	0.1322	-0.4682	
0.20862	0.136762	0.953796	0.28	-2.59	0.77	-0.238	0.1323	-0.459	
0.211548	0.130174	0.950136	-0.42	-3.36	0.07	-0.2321	0.1261	-0.4468	
0.221796	0.131028	0.940986	0.14	-2.8	-0.07	-0.2308	0.1322	-0.459	
0.221186	0.118462	0.939522	1.19	-1.05	-0.07	-0.2381	0.1338	-0.4605	
0.219356	0.116022	0.93696	3.5	0.14	0.84	-0.2352	0.1384	-0.4574	
0.209596	0.116998	0.93574	5.32	-0.14	2.24	-0.2322	0.1276	-0.4544	
0.202032	0.125294	0.934154	5.46	-2.31	3.08	-0.2336	0.1231	-0.459	
0.199104	0.13664	0.932202	4.06	-4.76	2.52	-0.2366	0.1292	-0.4682	
0.198616	0.139568	0.940254	2.73	-4.9	0.07	-0.2338	0.1322	-0.4697	
0.204228	0.13725	0.943426	2.45	-4.62	-2.45	-0.2394	0.1262	-0.4575	
0.218746	0.139446	0.962336	1.89	-3.01	-2.66	-0.2307	0.1246	-0.4544	
0.229726	0.14396	0.963556	1.54	-1.47	-3.15	-0.2423	0.1262	-0.4575	
0.235826	0.157624	0.963434	0.63	0.63	-2.73	-0.2308	0.1291	-0.4651	
0.237534	0.161528	0.961116	-1.12	0.63	-3.29	-0.2452	0.1278	-0.4621	
0.236314	0.159332	0.958554	-1.12	0.56	-2.73	-0.2394	0.1293	-0.4514	
0.233264	0.1525	0.964532	-1.26	-0.91	-1.61	-0.235	0.1307	-0.4483	
0.230946	0.148718	0.962336	-1.47	-1.47	0.35	-0.2437	0.1263	-0.4545	
0.23607	0.146278	0.934032	-4.69	-1.82	2.31	-0.2453	0.137	-0.4499	
0.228262	0.1525	0.954284	-2.87	-1.75	5.04	-0.2366	0.1307	-0.4605	
0.223016	0.140788	0.942938	-3.36	-3.85	2.94	-0.2379	0.1262	-0.4544	
0.230458	0.121634	0.946598	-5.32	-4.34	4.62	-0.2438	0.1308	-0.4621	
0.222162	0.114314	0.943426	-4.27	-4.97	3.78	-0.2438	0.1308	-0.4529	
0.21838	0.118584	0.930128	-5.88	-2.45	3.99	-0.2393	0.1247	-0.4483	
0.221552	0.12444	0.92964	-4.97	0.77	1.61	-0.2351	0.1292	-0.4605	
0.217526	0.12322	0.94062	-3.99	3.29	-0.42	-0.241	0.1354	-0.4666	
0.218624	0.127002	0.949282	-3.92	5.53	-1.26	-0.2338	0.1368	-0.4605	
0.222162	0.130174	0.950624	-4.55	4.97	-3.01	-0.2352	0.1384	-0.4559	
0.226554	0.126758	0.953308	-5.04	3.99	-2.73	-0.2351	0.1338	-0.4544	
0.223138	0.117364	0.956114	-5.32	2.1	-3.29	-0.2454	0.1462	-0.4514	
0.227896	0.119316	0.946964	-4.9	1.75	0.07	-0.2336	0.1276	-0.462	
0.21899	0.11651	0.947452	-5.53	1.05	-0.91	-0.2352	0.1384	-0.4513	
0.218746	0.11651	0.944768	-3.08	1.82	0.21	-0.2453	0.1354	-0.4529	
0.210084	0.11163	0.947696	-1.82	-0.07	-0.14	-0.2351	0.1307	-0.4514	
0.207034	0.106628	0.949282	-2.03	-3.29	0.49	-0.2338	0.1414	-0.4559	
0.210816	0.107116	0.948428	-1.12	-3.36	1.12	-0.2453	0.1446	-0.4437	
0.212524	0.105774	0.950746	-1.05	-2.38	1.33	-0.228	0.1413	-0.4513	
0.21533	0.107238	0.944036	-0.91	-1.05	0.84	-0.2423	0.1308	-0.456	
0.223626	0.106018	0.920612	-1.4	1.75	-0.91	-0.2381	0.1399	-0.4498	
0.22814	0.10492	0.91683	-1.05	1.89	-1.19	-0.2368	0.1445	-0.462	
0.230824	0.111996	0.92903	0.28	0.63	-1.33	-0.2497	0.1355	-0.4637	
0.224724	0.119926	0.941596	1.4	-0.63	-2.17	-0.2396	0.143	-0.4544	
0.229238	0.122244	0.957334	2.24	0.21	-3.57	-0.241	0.14	-0.4544	
0.230824	0.121146	0.95953	2.17	1.89	-3.29	-0.228	0.1398	-0.4543	
0.234972	0.116876	0.954772	0.28	1.96	-2.66	-0.2454	0.1446	-0.4483	
0.241316	0.11041	0.944158	-0.77	0.63	-1.12	-0.2395	0.1369	-0.4544	
0.23363	0.109678	0.942694	0.28	0.42	0.84	-0.2294	0.1383	-0.4589	
0.225212	0.117852	0.945134	3.08	2.24	1.89	-0.2469	0.1431	-0.459	
0.217648	0.119072	0.953186	5.32	3.92	1.47	-0.2411	0.1476	-0.4529	
0.21106	0.121268	0.956724	5.81	4.27	1.82	-0.2425	0.1461	-0.459	
0.21045	0.121634	0.960018	4.34	1.26	2.59	-0.2395	0.1384	-0.4498	
0.20313	0.130784	0.963922	2.31	-2.52	3.5	-0.2381	0.1369	-0.462	
0.207034	0.135054	0.956114	0.35	-4.41	3.15	-0.2237	0.1443	-0.4558	
0.207766	0.132858	0.950746	0.07	-3.43	1.47	-0.238	0.1292	-0.4529	
0.210206	0.127124	0.940498	-0.21	-1.33	-0.63	-0.2336	0.1307	-0.4529	
0.214964	0.122854	0.938546	2.1	-0.21	-1.61	-0.2411	0.1461	-0.4544	
0.218868	0.120292	0.93879	3.78	-1.33	-1.96	-0.2366	0.1415	-0.4468	
0.21899	0.12383	0.93879	3.29	-3.99	-1.47	-0.2381	0.1353	-0.4636	
0.218746	0.125172	0.944646	2.17	-6.79	-1.82	-0.2394	0.1308	-0.456	
0.218014	0.125904	0.951844	2.31	-6.51	-2.59	-0.2381	0.1384	-0.4651	
0.221186	0.124074	0.950258	3.08	-4.9	-2.59	-0.2308	0.1353	-0.4498	
0.223382	0.127002	0.950746	3.01	-3.08	-3.08	-0.2322	0.1399	-0.4452	
0.231068	0.129686	0.94733	1.12	-2.66	-4.06	-0.2409	0.1308	-0.4529	
0.244	0.122488	0.93879	0.14	-2.03	-3.78	-0.2365	0.1323	-0.4498	
0.246562	0.122122	0.94794	0.21	-2.73	-2.1	-0.2379	0.1247	-0.4544	
0.244244	0.131028	0.959408	1.05	-3.43	0.21	-0.2336	0.1338	-0.4452	
0.244366	0.138714	0.95465	1.89	-1.96	1.89	-0.2423	0.1308	-0.4529	
0.242292	0.143472	0.950014	1.61	-1.05	2.24	-0.2496	0.1309	-0.4591	
0.238022	0.142252	0.951234	0.21	-1.54	2.45	-0.2424	0.1354	-0.459	
0.240584	0.137006	0.949892	-1.26	-2.59	2.31	-0.2394	0.1262	-0.459	
0.243878	0.130662	0.940132	-2.03	-1.96	2.31	-0.2265	0.1336	-0.4666	
0.244122	0.12993	0.93025	-1.89	-0.28	1.68	-0.2511	0.1386	-0.4606	
0.240584	0.124806	0.930738	-1.19	0.84	1.05	-0.2481	0.1278	-0.4652	
0.237412	0.125416	0.933666	0.49	2.24	0.7	-0.2424	0.1354	-0.4575	
0.234484	0.116876	0.93757	-1.19	2.8	1.4	-0.2425	0.14	-0.4605	
0.23302	0.134688	0.941596	1.12	1.12	0.28	-0.2365	0.1277	-0.459	
0.227652	0.133102	0.952332	0.63	1.75	2.1	-0.2381	0.1384	-0.4636	
0.228384	0.1403	0.95526	-1.96	0.07	-1.4	-0.2438	0.1354	-0.456	
0.23607	0.136274	0.945378	-3.08	1.68	0.42	-0.2439	0.1385	-0.4606	
0.229604	0.129198	0.952332	-3.92	1.89	-2.17	-0.2381	0.1415	-0.4544	
0.229116	0.131272	0.94916	-2.66	3.5	-1.54	-0.2379	0.1262	-0.4575	
0.229726	0.132126	0.935496	-0.77	3.5	-0.7	-0.2408	0.1277	-0.4529	
0.228872	0.13359	0.948306	-0.42	0.77	-0.21	-0.2481	0.1309	-0.4545	
0.228628	0.12932	0.958432	0.28	-2.31	0.14	-0.2497	0.1355	-0.4591	
0.227408	0.13298	0.964166	0.42	-3.71	0.42	-0.2437	0.1324	-0.4453	
0.21838	0.129686	0.945744	-3.01	-2.59	0.35	-0.2409	0.1338	-0.459	
0.21716	0.13664	0.93757	-3.85	-1.26	-0.7	-0.2481	0.134	-0.453	
0.222406	0.125172	0.933422	-4.41	-2.52	-1.96	-0.2482	0.1385	-0.456	
0.23424	0.11712	0.92842	-3.01	-3.29	-2.59	-0.2511	0.1386	-0.4591	
0.238388	0.111508	0.927078	-1.26	-1.61	-2.94	-0.2468	0.1431	-0.456	
0.245342	0.103212	0.922686	-0.63	-2.59	-2.17	-0.2394	0.1308	-0.4544	
0.246196	0.107482	0.927322	-0.14	-4.41	0	-0.2423	0.1324	-0.4529	
0.246318	0.109678	0.949648	-0.77	-7.14	0.84	-0.2423	0.1385	-0.4407	
0.248636	0.12261	0.95099	0.14	-6.23	1.05	-0.2466	0.1309	-0.4499	
0.245098	0.112606	0.936838	-0.28	-4.41	1.26	-0.2438	0.1293	-0.4575	
0.244976	0.117364	0.946476	0	-3.5	1.4	-0.2481	0.1279	-0.4499	
0.248026	0.12078	0.94489	0.98	-2.8	0.98	-0.251	0.1325	-0.453	
0.25437	0.122122	0.947208	1.68	-0.35	1.05	-0.2655	0.1327	-0.4531	
0.253028	0.116754	0.950258	0.42	-0.49	0.07	-0.2497	0.1401	-0.456	
0.25437	0.115046	0.943792	0.28	0.49	0.63	-0.2512	0.1385	-0.4667	
0.252784	0.116632	0.935862	1.54	0.84	1.61	-0.2599	0.1417	-0.4622	
0.244854	0.119682	0.934642	2.1	0.7	1.75	-0.2439	0.1385	-0.4544	
0.24095	0.127856	0.934764	3.92	0.42	1.19	-0.2526	0.1371	-0.4591	
0.24095	0.129686	0.921222	4.34	-0.84	1.68	-0.2452	0.1324	-0.4545	
0.254004	0.139934	0.95526	2.1	-8.82	1.12	-0.2424	0.1385	-0.4544	
0.255834	0.131516	0.959408	-1.12	-10.71	1.33	-0.2568	0.131	-0.4607	
0.249246	0.134444	0.94733	2.66	-7.35	3.64	-0.2454	0.1431	-0.4575	
0.228994	0.149816	0.956114	1.96	-7.91	1.82	-0.254	0.1371	-0.4499	
0.232532	0.142984	0.963434	-3.22	-10.29	-0.14	-0.251	0.1355	-0.4484	
0.24705	0.137738	0.96258	-3.85	-7.49	-1.54	-0.2626	0.1372	-0.4469	
0.25132	0.130174	0.955748	-3.92	-3.85	-5.6	-0.254	0.1417	-0.4438	
0.262788	0.115412	0.935008	-5.88	-0.91	-6.51	-0.2598	0.1372	-0.4546	
0.275598	0.111752	0.91378	-5.32	1.4	-3.92	-0.2598	0.1387	-0.4546	
0.272914	0.109068	0.908656	-4.83	-0.98	-2.66	-0.2612	0.1387	-0.4515	
0.279136	0.11041	0.916708	-2.8	-4.48	-0.91	-0.2568	0.1341	-0.4439	
0.283406	0.14457	0.92659	-10.71	-10.57	-1.61	-0.2683	0.1266	-0.4424	
0.251076	0.12322	0.920978	-13.37	-12.95	-7.14	-0.2641	0.1342	-0.4531	
0.26901	0.108702	0.927566	-8.68	-11.83	-3.85	-0.2555	0.1448	-0.4423	
0.289994	0.096502	0.922808	-5.53	-10.29	-4.27	-0.264	0.1403	-0.4347	
0.308294	0.08845	0.935374	-1.89	-5.81	-7	-0.2685	0.148	-0.4378	
0.313052	0.07905599	0.938058	-2.1	0.91	-3.57	-0.267	0.1434	-0.447	
0.30256	0.087352	0.939278	-1.47	2.45	-0.77	-0.2641	0.1419	-0.4378	
0.281332	0.099796	0.938546	-0.35	2.03	0.63	-0.2639	0.1358	-0.4286	
0.27145	0.115534	0.928298	1.05	2.1	1.68	-0.2655	0.1403	-0.4439	
0.271572	0.118096	0.92842	-0.56	0.91	1.12	-0.2698	0.1419	-0.4348	
0.27145	0.11346	0.928176	-2.52	-1.4	-0.35	-0.2554	0.1448	-0.4331	
0.281698	0.108946	0.93757	-5.39	-2.66	-1.68	-0.2683	0.1297	-0.4394	
0.282674	0.103334	0.928786	-5.95	-2.52	-3.15	-0.2611	0.1388	-0.4347	
0.28365	0.10309	0.92842	-3.71	-0.49	-2.73	-0.2555	0.1463	-0.4423	
0.285968	0.100284	0.937692	-0.7	0.56	-2.17	-0.2699	0.1419	-0.4378	
0.287188	0.09577	0.936472	-0.63	1.54	-1.68	-0.2713	0.1419	-0.4393	
0.286578	0.09455	0.938546	-2.1	-0.07	-1.75	-0.2626	0.1372	-0.4454	
0.284992	0.101992	0.933544	-3.92	-0.84	-0.56	-0.2655	0.1434	-0.4347	
0.287432	0.108702	0.933422	-7.28	-0.91	0	-0.27	0.1496	-0.4424	
0.276086	0.108824	0.926956	-5.81	0.07	-2.17	-0.2684	0.1419	-0.4317	
0.271816	0.097112	0.927688	-5.53	0.91	-1.26	-0.2685	0.1465	-0.4363	
0.29646	0.086132	0.930128	-4.2	-0.84	-3.36	-0.2656	0.1403	-0.4454	
0.307318	0.082106	0.935862	0.28	2.52	1.61	-0.2655	0.1373	-0.4363	
0.285114	0.101016	0.944524	0.63	1.61	-0.28	-0.2611	0.1342	-0.4347	
0.276696	0.094916	0.93452	-2.73	-0.63	1.26	-0.2627	0.1464	-0.4362	
0.27999	0.08418	0.938058	-4.27	-3.01	0.28	-0.2684	0.1404	-0.4363	
0.293166	0.080398	0.92903	-5.04	-3.36	0.84	-0.2686	0.1511	-0.4439	
0.282186	0.085766	0.919148	-2.94	-0.56	0.35	-0.2713	0.145	-0.4317	
0.277794	0.091256	0.935984	-0.49	2.45	0.28	-0.2715	0.1496	-0.4485	
0.27999	0.09162199	0.945622	-0.49	2.38	-0.28	-0.2698	0.1435	-0.4317	
0.287432	0.09394	0.9455	-1.33	-0.35	1.4	-0.2627	0.1434	-0.4408	
0.27694	0.090158	0.928298	-4.76	-0.63	1.4	-0.2598	0.1495	-0.427	
0.27694	0.09076799	0.941474	-1.82	0.28	0.28	-0.2686	0.1526	-0.4408	
0.274622	0.09162199	0.934154	-1.26	1.26	0.07	-0.2772	0.1481	-0.4363	
0.273646	0.083082	0.938424	-1.33	1.05	-0.28	-0.2685	0.1465	-0.4363	
0.288042	0.072102	0.936106	-1.19	-0.28	-0.98	-0.2715	0.1542	-0.4439	
0.30256	0.076128	0.933422	-0.91	-1.12	0.77	-0.2627	0.1525	-0.4332	
0.27938	0.087596	0.934032	-1.12	-0.84	-0.14	-0.2713	0.1435	-0.4393	
0.277916	0.08784	0.93086	-0.84	0.07	0.07	-0.2613	0.1479	-0.4393	
0.28304	0.082228	0.93757	-0.63	-0.28	0.35	-0.2628	0.151	-0.4408	
0.286578	0.079544	0.938058	-0.35	-0.49	0.14	-0.2555	0.1555	-0.43	
0.280722	0.082472	0.93086	0.21	0	-0.14	-0.2641	0.1495	-0.4332	
0.282186	0.083448	0.934032	0.91	0.77	-0.21	-0.2671	0.1541	-0.4332	
0.2867	0.08052	0.938912	0.63	0.56	-0.28	-0.2642	0.1556	-0.4332	
0.279014	0.07991	0.924272	-1.96	1.05	0	-0.257	0.157	-0.4392	
0.282674	0.077836	0.939888	1.12	1.96	-0.77	-0.267	0.1495	-0.4332	
0.283406	0.084058	0.935862	1.75	1.82	-0.49	-0.2614	0.154	-0.4423	
0.27877	0.08723	0.94123	1.33	1.4	-0.28	-0.2614	0.1632	-0.4377	
0.281332	0.084668	0.938668	0.56	0.7	-0.21	-0.2656	0.1419	-0.4439	
0.28365	0.08479	0.939888	-0.42	-0.49	-0.07	-0.2613	0.1495	-0.4408	
0.282552	0.088084	0.92293	-0.91	-1.47	0.21	-0.2686	0.1541	-0.4393	
0.280966	0.080154	0.928664	-0.7	0.14	0.42	-0.2584	0.1479	-0.4377	
0.282308	0.08174	0.932568	0.91	0.98	-0.21	-0.2657	0.1526	-0.4423	
0.280356	0.081984	0.929884	1.19	0.56	0.28	-0.2614	0.1602	-0.4331	
0.28609	0.079666	0.929274	0.42	-0.14	0.7	-0.2628	0.1556	-0.4331	
0.289262	0.081008	0.922198	0	-0.56	0.35	-0.2672	0.1587	-0.4423	
0.27938	0.07905599	0.918904	0.21	-0.21	0.07	-0.2642	0.1526	-0.4286	
0.276208	0.079422	0.924882	0.63	1.33	0.28	-0.2613	0.1541	-0.4316	
0.284016	0.08052	0.933544	1.26	2.24	0.21	-0.2583	0.1479	-0.4347	
0.279258	0.081252	0.942084	0.7	1.89	0.14	-0.2729	0.1511	-0.4409	
0.279258	0.08906	0.940742	0.49	1.19	-0.35	-0.257	0.1509	-0.4408	
0.27328	0.08784	0.94306	0.98	1.96	-0.42	-0.2628	0.1479	-0.4469	
0.274988	0.092476	0.949526	1.33	2.94	-0.28	-0.2671	0.1541	-0.4347	
0.27694	0.090036	0.95099	0.56	1.61	-0.14	-0.2656	0.1449	-0.45	
0.278282	0.088084	0.943304	-0.14	0.07	0.21	-0.2583	0.1448	-0.4423	
0.275964	0.088206	0.935008	-0.98	-0.77	-0.07	-0.2612	0.1449	-0.4408	
0.278038	0.082228	0.931836	-1.05	-0.56	0.35	-0.2728	0.1466	-0.4348	
0.280112	0.082594	0.930128	-0.56	0.49	0.28	-0.2627	0.1464	-0.4439	
0.28121	0.085522	0.93269	0.21	1.26	0	-0.2655	0.1465	-0.4301	
0.274134	0.08662	0.933056	1.12	2.87	-0.07	-0.2642	0.151	-0.4408	
0.27206	0.085034	0.941474	1.68	3.36	-0.14	-0.2599	0.154	-0.4331	
0.274622	0.091744	0.94306	1.68	2.66	-0.28	-0.267	0.1465	-0.4393	
0.27084	0.084912	0.948184	0.42	1.54	-0.07	-0.2539	0.1479	-0.4255	
0.273646	0.091378	0.943182	-0.98	-0.14	-0.42	-0.2584	0.154	-0.4346	
0.26962	0.086498	0.941108	-1.12	0	0.07	-0.2598	0.1479	-0.4377	
0.272304	0.085522	0.940376	-0.63	0.21	0	-0.2612	0.1495	-0.4286	
0.273646	0.08845	0.935374	0.28	0.49	-0.28	-0.2641	0.1419	-0.4347	
0.27328	0.085034	0.938302	0.42	1.05	0	-0.2539	0.1448	-0.4316	
0.273768	0.087474	0.94062	0.21	0.63	-0.07	-0.2484	0.1569	-0.4453	
0.271938	0.083204	0.943304	-0.35	-0.21	0.28	-0.2641	0.1465	-0.4332	
0.273646	0.086254	0.941352	-0.63	-0.63	0.07	-0.2641	0.1465	-0.4332	
0.273646	0.084668	0.940254	-0.28	-0.28	0.35	-0.257	0.1555	-0.4316	
0.273158	0.085278	0.936716	-0.49	-0.84	0.07	-0.2526	0.1494	-0.4331	
0.27389	0.085278	0.938058	-0.28	-1.26	-0.07	-0.2641	0.1449	-0.4347	
0.27267	0.083936	0.93818	-0.42	-1.12	0	-0.2598	0.1495	-0.4331	
0.276208	0.083448	0.935252	-0.56	-0.7	0.07	-0.2657	0.1556	-0.4347	
0.27511	0.083448	0.938058	-0.21	-0.49	0.14	-0.2643	0.1617	-0.4362	
0.276208	0.08601	0.939156	-0.14	-0.63	0.14	-0.257	0.1494	-0.4499	
0.27694	0.084912	0.937204	0	-0.84	0.21	-0.27	0.1527	-0.4301	
0.27694	0.085522	0.934154	0.14	-0.84	0.14	-0.2598	0.1541	-0.4209	
0.27572	0.085644	0.93696	-0.14	-0.7	-0.07	-0.2715	0.1542	-0.4469	
0.276818	0.08686399	0.938668	-0.42	-0.7	-0.07	-0.2656	0.1495	-0.4393	
0.276208	0.083204	0.936716	-0.14	0.07	0.21	-0.2643	0.1571	-0.4393	
0.27694	0.08295999	0.937326	-0.21	-0.28	0.07	-0.2671	0.1556	-0.4378	
0.274378	0.083204	0.934154	0	-0.14	-0.07	-0.2614	0.1571	-0.4408	
0.276208	0.082106	0.939522	0.63	0.07	0	-0.2686	0.1557	-0.4378	
0.276452	0.08357	0.935252	0.49	-0.07	0.14	-0.2656	0.1449	-0.4424	
0.276452	0.08357	0.936106	-0.28	-0.07	0.14	-0.2671	0.1526	-0.4439	
0.278282	0.081618	0.940132	-0.7	-0.28	0.07	-0.2612	0.1372	-0.4454	
0.27389	0.08662	0.928176	-0.42	-0.35	-0.07	-0.2714	0.145	-0.4439	
0.278404	0.084424	0.941352	0.84	0.35	0.07	-0.2671	0.1526	-0.4393	
0.275964	0.084424	0.93086	0.35	0	0	-0.2584	0.1463	-0.4484	
0.27572	0.086132	0.943792	0.77	0.28	0	-0.2598	0.1433	-0.4393	
0.27694	0.0854	0.941596	0.14	0	0	-0.2657	0.1541	-0.4393	
0.27633	0.084546	0.94001	-0.35	-0.7	0	-0.2599	0.154	-0.4392	
0.27694	0.084912	0.93574	-0.7	-1.05	-0.07	-0.2685	0.148	-0.4317	
0.27755	0.083936	0.931714	-0.56	-0.56	-0.07	-0.2598	0.1448	-0.4408	
0.277916	0.081252	0.931958	0.14	0.07	-0.14	-0.2687	0.1618	-0.4377	
0.277428	0.082594	0.931348	0.49	0.42	0	-0.2583	0.1418	-0.4377	
0.27755	0.08357	0.93635	0.77	0.77	0.07	-0.267	0.1465	-0.4301	
0.276696	0.084912	0.936472	0.42	0.77	0.07	-0.2656	0.148	-0.4332	
0.275598	0.084668	0.938546	0.49	0.91	-0.14	-0.2584	0.1555	-0.4362	
0.275354	0.083936	0.939156	0.42	0.77	-0.21	-0.2671	0.1495	-0.4362	
0.2745	0.085278	0.937814	0.63	0.84	-0.35	-0.2612	0.1434	-0.4347	
0.274134	0.08601	0.938424	0.77	0.98	-0.28	-0.267	0.1465	-0.4317	
0.275476	0.085644	0.940132	0.63	0.77	-0.21	-0.2568	0.1402	-0.4393	
0.276574	0.085888	0.939156	0.14	0.21	-0.21	-0.2598	0.1448	-0.4469	
0.276574	0.08479	0.936838	-0.14	-0.21	-0.07	-0.2714	0.1496	-0.4347	
0.275476	0.086742	0.936106	0	-0.14	-0.14	-0.2656	0.148	-0.4362	
0.275476	0.085644	0.93513	0.21	0.14	0	-0.2685	0.1465	-0.4393	
0.275232	0.086132	0.937204	0.35	0.35	0	-0.2656	0.148	-0.4378	
0.275354	0.084912	0.938058	0.21	0.42	0	-0.2642	0.1464	-0.4408	
0.274256	0.087474	0.93818	0.21	0.49	-0.07	-0.2626	0.1418	-0.4347	
0.274866	0.085522	0.938424	0.07	0.28	-0.07	-0.2642	0.151	-0.4439	
0.2745	0.085522	0.938058	0.07	0.28	-0.07	-0.254	0.1509	-0.4316	
0.193248	0.085766	0.85522	15.47	16.66	2.31	-0.2555	0.1494	-0.4362	
0.260348	0.066246	1.030534	30.8	20.44	-4.9	-0.2511	0.1493	-0.4346	
0.26108	0.117608	1.038464	9.8	7.77	-2.03	-0.2642	0.1449	-0.4439	
0.78324	0.92232	1.60003	-35	-42.91	19.74	-0.2569	0.1448	-0.4423	
0.25803	-0.172386	0.86559	-91.77	-98	46.06	-0.2526	0.1463	-0.4407	
0.74786	-1.11691	1.755092	-175.42	40.53	-1.75	-0.2714	0.1557	-0.4301	
-0.378078	-0.027694	0.950136	102.55	223.16	22.54	-0.2675	0.1909	-0.4178	
0.176656	0.07442	0.695156	81.69	258.58	27.23	-0.2341	0.1689	-0.4467	
0.096258	0.161406	1.033462	58.8	234.15	44.38	-0.1935	0.1576	-0.4708	
-0.069418	0.135054	1.318454	118.09	226.03	54.25	-0.159	0.1617	-0.4874	
-0.123708	0.203862	1.141798	160.51	274.75	56	-0.1183	0.1459	-0.4963	
-0.010126	-0.007929999	1.067866	182.21	327.18	30.94	-0.0775	0.1162	-0.5145	
-0.37027	0.305366	0.9943	182.98	316.05	31.22	-0.015	0.0924	-0.5248	
-0.349042	0.285724	1.07909	184.03	302.75	26.81	0.0373	0.0658	-0.5291	
-0.453352	0.822036	0.898164	156.31	231.49	-30.73	0.0926	0.0436	-0.5257	
-0.269864	0.429806	0.620858	272.37	331.31	-32.41	0.1308	0.007999999	-0.5118	
-0.679418	0.481534	0.46055	257.67	368.41	-105.35	0.1705	-0.0275	-0.4888	
-1.10715	0.493246	0.19581	143.85	308.77	-86.24	0.245	-0.0559	-0.4502	
-0.901092	0.549488	0.20313	103.46	234.99	-54.53	0.2859	-0.07009999	-0.4209	
-0.862052	0.513376	0.172386	41.79	123.62	27.58	0.3164	-0.0689	-0.3948	
-0.444812	0.402966	0.639646	15.96	71.05	10.78	0.3339	-0.0706	-0.3779	
-0.484218	0.967338	0.322568	50.05	16.52	-44.03	0.3426	-0.0707	-0.3747	
-0.798368	-0.031232	0.272914	161.84	-13.02	-133.63	0.3486	-0.0845	-0.3763	
-0.85888	0.320738	0.148352	74.97	4.34	-86.73	0.3515	-0.0845	-0.3671	
-0.543022	0.431514	0.250954	5.88	-8.4	-55.65	0.3601	-0.0709	-0.3655	
-0.865834	0.271084	0.157868	-31.36	-57.75	-21.49	0.3469	-0.0631	-0.3655	
-1.129842	0.05002	-0.005124	-41.65	-41.37	23.59	0.3585	-0.0663	-0.3746	
-0.364414	0.469578	0.230946	-94.22	-105.63	80.01	0.3367	-0.0676	-0.3855	
-0.848998	0.389058	0.385276	-117.04	-200.2	99.19	0.3048	-0.0703	-0.4086	
-0.458598	0.679906	0.660996	-40.39	-149.24	95.41	0.2858	-0.067	-0.4255	
-0.378444	0.70089	0.713456	31.15	-91.63	62.09	0.2597	-0.0728	-0.4364	
-0.36112	0.452376	0.436882	6.3	-40.11	35.56	0.2599	-0.0866	-0.4441	
-0.520574	0.424926	0.56242	-12.88	-87.22	19.95	0.235	-0.0695	-0.4533	
-0.667584	0.57096	0.66673	23.94	10.01	-31.15	0.225	-0.08769999	-0.4581	
-0.691984	0.571204	0.537898	67.41	85.96	-39.41	0.2366	-0.0863	-0.4595	
-0.671244	0.589626	0.484828	91.56	132.79	-45.85	0.2482	-0.0834	-0.4457	
-1.092022	0.60817	0.356972	95.06	103.18	-47.95	0.2585	-0.0911	-0.4349	
-0.688324	0.510936	0.461648	31.64	64.68	-28.49	0.2747	-0.1005	-0.415	
-0.656726	0.637694	0.383812	37.52	108.64	-54.04	0.295	-0.1022	-0.4088	
-0.762134	0.681614	0.378932	23.24	153.3	-105.28	0.3168	-0.0964	-0.3933	
-0.688202	0.490684	0.247538	-12.67	188.65	-113.96	0.3283	-0.0889	-0.381	
-0.774334	0.423218	0.132858	0.77	209.02	-85.96	0.3573	-0.07539999	-0.3533	
-0.82167	0.41236	0.10248	31.5	182.28	-101.5	0.3762	-0.0618	-0.3149	
-0.167506	0.96197	0.401624	448.84	-99.12	1.54	0.4124	-0.0546	-0.307	
-1.424472	-0.915366	-0.70394	-23.31	-265.58	-32.34	0.3909	-0.0773	-0.3134	
-0.64477	0.608658	0.332206	38.43	-129.64	-41.51	0.3618	-0.0785	-0.3426	
-0.832894	-0.008417999	0.009638	21.21	-118.23	-53.13	0.36	-0.0648	-0.367	
-0.678564	0.533994	0.155672	4.27	31.22	27.44	0.3512	-0.0586	-0.3716	
-2.139636	0.090158	0.31842	290.01	434.98	-138.11	0.3572	-0.07539999	-0.367	
-1.043344	0.0976	-0.194102	588.56	452.2	-115.71	0.3954	-0.0803	-0.295	
-0.925004	0.74908	-0.166164	317.45	169.33	48.72	0.428	-0.0989	-0.2185	
-0.62159	-0.263886	-0.062342	-784.98	-292.25	37.03	0.4414	-0.1158	-0.1879	
-0.656726	0.175192	0.008296	-767.27	-412.23	50.05	0.4291	-0.099	-0.2597	
-0.851682	0.607072	0.450302	-230.72	-318.08	-114.38	0.3816	-0.0436	-0.3377	
-1.16144	0.282064	0.531188	-91.63	-6.79	-135.59	0.3564	-0.0128	-0.3775	
-0.921222	0.218746	0.549366	-8.82	-16.31	-144.34	0.3457	0.0223	-0.3867	
-0.985272	0.003294	0.224602	-28.84	84.7	-126.28	0.3456	0.0331	-0.3851	
-1.05896	0.162138	0.042822	-9.45	73.78	-109.2	0.3585	0.0497	-0.3789	
-0.941352	0.120414	0.19642	43.68	20.09	-124.11	0.351	0.0728	-0.3666	
-0.777018	-0.015616	0.432368	22.82	35.07	-39.76	0.3594	0.0971	-0.3604	
-0.864492	0.00366	0.38735	16.66	28.21	-51.17	0.3523	0.0896	-0.3543	
-0.944646	0.479704	-0.045506	-44.66	50.89	-93.45	0.3612	0.0819	-0.3467	
-1.06384	0.104554	0.14335	-78.75	181.37	-131.67	0.3723	0.1291	-0.3251	
-0.932934	-0.881328	0.162138	64.75	112.42	-101.43	0.3998	0.1395	-0.305	
-1.037244	0.35502	-0.185928	230.23	106.47	-44.59	0.4028	0.1257	-0.3066	
-1.050664	0.067222	0.061244	222.32	58.24	-57.33	0.3971	0.1258	-0.302	
-0.786168	-0.0671	0.046726	194.6	32.9	-42.21	0.4102	0.1196	-0.2958	
-0.922564	-0.07198	0.131516	122.64	4.34	-11.55	0.4091	0.0905	-0.3097	
-1.088118	0.302804	0.411506	69.58	-5.39	24.22	0.3988	0.0937	-0.3189	
-1.399462	-0.711504	-0.863028	-67.06	12.11	-0.28	0.3945	0.0968	-0.3052	
-0.848388	-0.108092	0.07442	-45.99	-50.61	77.07	0.4031	0.1074	-0.3081	
-1.076894	0.076372	-0.143838	-54.11	-121.94	91.98	0.396	0.0937	-0.3143	
-0.894748	0.070638	0.212158	-2.24	-138.81	54.74	0.3728	0.0817	-0.342	
-1.06201	0.11224	0.344894	-7.7	-96.53	19.46	0.367	0.0741	-0.3573	
-1.037488	0.121634	0.321348	-1.82	-50.89	-2.03	0.3669	0.0787	-0.3589	
-1.00467	0.034892	0.306342	0.21	-25.97	-20.23	0.3683	0.0817	-0.3665	
-0.890234	0.046482	0.459208	5.18	-5.11	-23.73	0.358	0.0879	-0.3681	
-1.339316	0.167262	0.50996	61.95	39.27	-14.7	0.3595	0.0925	-0.3589	
-0.93635	0.033428	0.825086	54.53	74.41	21.49	0.3612	0.0742	-0.3604	
-1.036512	-0.094184	0.65453	78.47	112.14	19.32	0.3672	0.0604	-0.3436	
-1.034804	-0.178486	0.641964	69.51	90.3	21.91	0.3849	0.0495	-0.3222	
-0.977708	-0.146644	0.086498	115.29	139.86	-55.44	0.4011	0.031	-0.3114	
-1.045906	-0.072224	0.048068	86.45	126.7	-70.56	0.4084	0.0386	-0.293	
-0.991738	-0.107238	-0.005124	68.67	91.35	-58.52	0.42	0.0385	-0.2792	
-0.895114	-0.1159	-0.013908	31.5	33.11	-43.82	0.42	0.0508	-0.267	
-0.932324	-0.495686	0.220942	-160.09	-52.36	-61.39	0.4198	0.0599	-0.27	
-1.088362	0.096136	-0.073566	-246.19	-99.47	-35.21	0.4196	0.07669999	-0.2791	
-1.112762	-0.048556	0.35624	-282.03	-112.84	3.22	0.4074	0.1135	-0.2989	
-1.041636	-0.207888	-0.175192	-73.57	-29.82	23.24	0.3986	0.1243	-0.3005	
-0.956114	-0.078202	0.088572	-122.43	-48.93	33.81	0.3998	0.1319	-0.3157	
-0.134932	0.537532	0.737368	149.38	86.1	62.3	0.3985	0.1227	-0.3112	
-1.059692	-0.312442	0.042334	18.76	-5.6	-83.44	0.406	0.1105	-0.2913	
-1.099342	0.008662	0.169824	92.61	-46.55	34.72	0.4059	0.1196	-0.2989	
-1.174372	0.366488	0.20679	144.06	-27.93	63.21	0.4018	0.09519999	-0.3021	
-1.154852	0.110898	0.008662	113.82	1.12	38.01	0.3991	0.0784	-0.3067	
-1.129964	-0.002806	-0.061244	130.06	-36.96	22.05	0.3991	0.0708	-0.3144	
-1.111298	-0.323178	-0.038308	159.95	-76.44	37.94	0.3994	0.0463	-0.3297	
-1.03212	-0.218746	0.123952	202.79	-133.42	155.12	0.381	0.0083	-0.3391	
-0.621468	1.10471	1.016138	149.31	-94.92	143.08	0.3684	-0.0328	-0.3515	
-0.754082	0.204716	0.037454	95.9	50.26	18.41	0.3699	-0.0358	-0.3485	
-1.00833	0.85949	0.97417	-18.9	38.43	-62.79	0.3657	-0.048	-0.3425	
-0.76738	-0.078324	-0.335012	-24.43	137.97	-112.7	0.3859	-0.0421	-0.3392	
-0.88572	-0.018422	0.00244	-27.72	-20.65	-79.03	0.4002	-0.0178	-0.3223	
-0.949648	0.176168	0.127978	-6.44	-24.71	-57.75	0.3913	-0.0024	-0.3315	
-1.139602	0.027694	0.04331	-9.31	-9.17	-76.65	0.3854	0.0052	-0.3299	
-1.085434	-0.03538	0.173118	22.47	-14.91	-31.71	0.3882	0.0112	-0.3345	
-1.022848	-0.153476	0.092598	27.72	-12.11	-21.42	0.3824	0.0113	-0.3391	
-1.023458	0.012566	0.217038	15.47	-14.49	17.43	0.3809	0.0129	-0.3391	
-1.011014	0.011224	0.16104	9.73	-7.21	-0.84	0.381	0.0083	-0.3315	
-1.08458	0.080154	0.030988	19.81	-27.65	-13.02	0.3794	0.0113	-0.3437	
-1.025044	-0.225456	0.050386	-15.33	-18.2	-51.8	0.3808	0.0144	-0.3452	
-0.98698	0.03538	0.132248	0.63	-6.72	-4.97	0.3678	0.0145	-0.3484	
-0.959164	0.041846	0.150792	18.41	-9.52	-14	0.3778	0.022	-0.3467	
-1.060546	-0.053436	0.202032	68.18	-20.58	-45.85	0.3808	0.0143	-0.3513	
-1.005768	-0.070394	0.204106	73.99	-21.91	-30.8	0.3735	0.0144	-0.3575	
-0.966362	-0.075762	0.225456	63.21	-31.85	-18.34	0.3619	0.0176	-0.3576	
-0.959042	-0.08686399	0.22814	71.75	-36.19	15.47	0.3663	0.0145	-0.3606	
-1.001986	-0.076494	0.229726	62.09	-29.33	3.99	0.3578	-0.0021	-0.3607	
-0.965386	-0.004392	0.203008	30.8	-6.23	2.24	0.3535	-0.0066	-0.3668	
-1.019066	0.022326	0.202764	0.14	11.2	2.24	0.3607	-0.0052	-0.3668	
-1.04554	-0.071614	0.1037	-72.52	33.46	13.65	0.3651	-0.0052	-0.3545	
-1.00223	-0.036722	0.136274	-172.27	20.58	19.88	0.3591	0.0054	-0.3607	
-0.898408	-0.07515199	0.301706	-128.52	11.55	15.26	0.3633	0.0176	-0.3667	
-0.933178	-0.080398	0.281698	-66.36	1.12	0.49	0.369	0.0298	-0.3575	
-0.979782	-0.055876	0.149328	2.45	-13.23	-7.63	0.3588	0.036	-0.3575	
-1.035292	-0.004758	0.156648	21.98	-28.49	-11.9	0.3689	0.0313	-0.362	
-1.050542	-0.003904	0.152378	28.42	-16.52	7.49	0.356	0.0269	-0.3591	
-0.926956	0.022082	0.261324	-7.42	-13.23	19.81	0.3559	0.0253	-0.3728	
-1.644072	-0.066246	0.268034	-108.99	-22.33	-3.85	0.3658	0.0451	-0.3697	
-0.833504	0.05063	0.480192	-47.95	-20.58	14.42	0.3615	0.0405	-0.3728	
-1.144482	-0.0427	0.247904	-8.33	-23.66	-12.25	0.3485	0.0422	-0.3728	
-0.982466	-0.047214	0.292678	-15.75	-25.9	-2.24	0.3541	0.0498	-0.3743	
-0.9089	-0.028792	0.308172	20.16	-28.14	4.76	0.3397	0.0469	-0.3714	
-0.938424	-0.036478	0.32208	45.29	-44.17	2.03	0.3412	0.0346	-0.3882	
-0.928664	-0.013908	0.34587	47.53	-50.89	3.15	0.3309	0.0454	-0.3989	
-0.929152	-0.038918	0.383324	43.68	-51.87	4.55	0.3297	0.0225	-0.4036	
-1.052982	-0.015982	0.389912	36.75	-49.07	11.13	0.3239	0.0241	-0.3929	
-0.518134	-0.165554	0.198616	4.76	-3.22	20.09	0.3224	0.021	-0.4143	
-0.979294	0.03172	0.33794	38.36	-1.05	11.27	0.3094	0.0243	-0.4006	
-0.928298	-0.013908	0.345626	46.83	-4.34	6.51	0.3198	0.0028	-0.4083	
-0.925126	0.002196	0.348798	38.22	2.31	14	0.3182	0.0104	-0.4098	
-0.995398	0.096868	0.312198	53.9	2.45	13.93	0.3198	-0.0002	-0.4052	
-0.95404	0.130174	0.29585	40.32	25.41	59.5	0.32	-0.0155	-0.4053	
-1.018578	-0.000366	0.314028	14.91	43.82	60.69	0.31	-0.0245	-0.4023	
-0.911828	-0.042212	0.276696	-33.11	71.68	63.42	0.3188	-0.0353	-0.4084	
-1.557452	0.176656	0.095282	-51.31	135.87	23.38	0.3335	-0.04	-0.3869	
-0.86071	0.407236	0.246806	41.16	140.07	-8.05	0.3553	-0.0387	-0.3608	
-1.07421	0.10553	0.195444	39.83	18.2	4.9	0.3625	-0.0281	-0.3607	
-1.083604	0.11407	0.233386	5.25	29.47	8.68	0.3655	-0.0312	-0.3485	
-0.885476	0.09272	0.218258	-7.77	39.83	10.99	0.3684	-0.0389	-0.3531	
-0.907802	0.088816	0.252784	-7.7	28.7	8.54	0.3771	-0.0359	-0.35	
-0.994422	0.10248	0.243634	-4.48	1.89	3.43	0.3685	-0.0389	-0.347	
-1.02297	0.090158	0.249856	-1.4	-17.5	0.63	0.3641	-0.0388	-0.344	
-0.977708	0.181658	0.328546	-33.18	-33.39	-2.73	0.3698	-0.0343	-0.3561	
-0.885598	0.190808	0.182878	-80.85	-28.21	-8.89	0.3799	-0.0299	-0.353	
-1.291492	-0.264618	0.322446	-110.67	-5.6	-18.13	0.3727	-0.0328	-0.3561	
-0.947208	-0.02684	0.217038	-128.66	25.41	-9.1	0.371	-0.0145	-0.353	
-0.588894	0.55144	0.070394	-127.4	19.81	19.18	0.3765	0.0067	-0.3575	
-1.139968	-0.838872	0.419436	-148.68	5.81	40.67	0.3735	0.019	-0.359	
-0.678808	0.181902	0.169092	-102.34	38.5	5.6	0.3691	0.0206	-0.3529	
-1.161318	0.122122	0.10309	-119.84	13.58	14.21	0.3734	0.0282	-0.3452	
-1.059692	-0.088572	0.050264	61.46	34.44	18.62	0.3789	0.048	-0.3497	
-0.899506	0.16165	0.038552	2.8	7.42	16.94	0.3777	0.0389	-0.3375	
-0.93269	-0.064416	0.133224	29.89	-8.82	3.5	0.3852	0.0128	-0.3421	
-1.129232	-0.076738	0.608536	0.35	-10.64	-10.36	0.3822	0.0235	-0.3406	
-0.934032	0.074176	-0.203862	-126.14	33.95	13.3	0.3793	0.022	-0.3391	
-1.016382	0.036356	0.083448	-65.45	-19.88	-6.44	0.3834	0.0388	-0.3528	
-1.024922	0.126026	0.097844	-44.45	-21.49	-6.09	0.3891	0.0479	-0.3512	
-0.959042	0.022082	0.14396	-35.21	-20.72	-18.34	0.3791	0.045	-0.336	
-1.219634	-0.118218	0.244976	-25.55	-7.77	-25.48	0.386	0.0662	-0.3481	
-0.71065	0.10797	0.296216	13.86	27.09	-19.53	0.3787	0.0679	-0.3497	
-0.908778	-0.08295999	0.184586	37.87	23.94	-24.57	0.3803	0.0587	-0.3436	
-0.905362	-0.04819	0.25437	92.89	28.84	-43.12	0.3759	0.0649	-0.3436	
-1.007964	-0.042578	0.334646	130.34	25.55	-62.51	0.379	0.0557	-0.3283	
-1.049688	0.043798	0.218746	129.64	21.28	-37.94	0.3834	0.0495	-0.3344	
-0.935984	-0.001952	0.110532	147.91	13.02	-39.48	0.3791	0.0404	-0.339	
-1.031266	0.049776	0.113338	217.56	8.68	-18.62	0.3867	0.0205	-0.3268	
-0.850828	0.061976	0.029646	268.31	17.99	-31.64	0.3897	0.0067	-0.3284	
-0.73139	0.047214	0.099674	328.23	57.89	-72.52	0.3886	-0.0161	-0.3208	
-1.073112	0.095038	0.116632	222.18	56.77	-38.99	0.3961	-0.0315	-0.3132	
-0.903898	0.073688	-0.001342	63.98	30.38	-35.7	0.3934	-0.0421	-0.298	
-1.007476	-0.002318	0.00549	-5.32	28.98	-29.61	0.4064	-0.0346	-0.2994	
-0.948428	0.007929999	0.03416	-15.82	49.63	-27.79	0.4166	-0.0378	-0.2917	
-0.97478	-0.002196	0.035014	-10.85	62.16	-33.46	0.4165	-0.024	-0.2764	
-0.976366	-0.101992	0.038064	-21.14	73.22	-41.86	0.4193	-0.0241	-0.2886	
-1.15046	-0.037454	0.016592	-65.03	67.62	-48.51	0.4191	0.0003	-0.2702	
-1.184132	-0.10004	-0.015128	-119.21	66.22	-2.38	0.4262	0.0171	-0.2594	
-0.818498	0.056608	-0.11041	-210.56	59.29	-0.49	0.4435	0.0291	-0.2485	
-1.057374	-0.05978	-0.001464	-73.64	24.29	4.83	0.4291	0.0293	-0.2441	
-1.089216	-0.114314	-0.041968	-5.11	12.18	-11.55	0.4406	0.0322	-0.2455	
-1.061156	-0.092354	-0.060878	18.34	5.25	-8.89	0.4406	0.0368	-0.2424	
-0.979416	-0.052948	-0.057462	22.47	1.12	0.98	0.4391	0.043	-0.2272	
-1.085922	-0.068198	-0.086742	7.14	-2.17	6.58	0.4334	0.0354	-0.2379	
-1.100806	-0.056974	-0.052094	3.99	-4.55	15.96	0.442	0.0383	-0.247	
-0.982222	-0.058438	-0.02928	13.72	-12.32	18.13	0.432	0.0278	-0.2379	
-1.027362	-0.07869	-0.064416	14.63	-27.16	20.23	0.4378	0.0231	-0.2471	
-0.967094	-0.104676	0.002562	6.65	-34.72	24.92	0.4292	0.0186	-0.2533	
-0.978562	-0.074786	0.169458	16.66	-55.86	13.72	0.4394	0.0062	-0.2532	
-0.8357	0.122488	0.149084	-24.92	-72.94	26.25	0.4307	0.0063	-0.264	
-1.069696	-0.06466	0.311588	-50.75	-58.24	40.04	0.4291	0.0094	-0.2731	
-0.772382	0.030134	-0.107482	-74.97	-32.34	34.16	0.4206	-0.0057	-0.2855	
-0.783118	-0.023668	0.113704	-154.63	-45.29	35.28	0.4204	0.0048	-0.2946	
-1.002474	0.191418	-0.065148	-145.81	-20.44	36.12	0.4174	0.0125	-0.2946	
-0.615734	0.372954	0.498248	-127.4	-27.58	69.3	0.4188	0.0156	-0.2885	
-1.584536	-0.812642	-0.081374	-195.3	-21.91	70.28	0.4114	0.0202	-0.3129	
-1.126426	0.291214	0.042334	-37.87	-55.79	-0.07	0.4084	0.0294	-0.3068	
-0.834236	0.05307	-0.16653	-134.68	-88.41	7.84	0.4126	0.0324	-0.3159	
-1.144604	0.018788	-0.078934	-84.14	-76.79	-1.68	0.3936	0.0479	-0.3191	
-0.957334	0.197396	-0.232654	-8.4	4.83	12.25	0.3906	0.0464	-0.3328	
-1.111298	0.09516	-0.107482	6.02	59.78	18.13	0.3849	0.0434	-0.3359	
-1.000644	0.106262	0.07515199	0.91	21.7	5.88	0.3978	0.057	-0.3251	
-0.995154	-0.000122	0.25864	-21	-40.32	-3.85	0.4039	0.0417	-0.3144	
-0.93696	-0.010492	0.349042	-11.83	-42.98	-6.37	0.3906	0.054	-0.3282	
-0.968558	-0.003904	0.292922	1.33	3.64	3.43	0.3804	0.0557	-0.3314	
-1.014186	0.058316	0.173728	3.43	24.99	6.23	0.3978	0.0524	-0.3312	
-1.027118	0.069784	0.125416	-4.97	14.14	7.91	0.3949	0.0555	-0.3343	
-1.344196	0.19947	-0.539118	104.58	-2.8	20.37	0.3952	0.0356	-0.3283	
-0.831552	-0.055144	0.061488	72.8	36.75	10.57	0.3966	0.0387	-0.3191	
-0.979172	0.072712	0.141886	78.54	45.64	1.33	0.4039	0.0294	-0.3267	
-0.894748	0.057706	0.190076	117.95	12.6	6.3	0.3997	0.0249	-0.3176	
-1.10044	-0.006954	0.34953	98	-88.69	-9.8	0.3999	0.0035	-0.3268	
-1.095316	0.15067	0.279258	134.61	-42.14	0.63	0.3899	-0.0039	-0.3254	
-0.898774	0.033428	0.443348	20.51	-23.59	-13.86	0.3827	-0.0146	-0.3315	
-1.035048	0.030866	0.314882	-23.59	-4.97	-3.08	0.3796	0.0007	-0.3361	
-0.993812	0.00671	0.391132	-101.22	19.32	-4.27	0.3867	0.0128	-0.333	
-0.590602	0.127734	0.444812	-130.06	53.27	23.31	0.3881	0.0189	-0.3329	
-1.23952	0.032452	0.233508	-102.97	32.9	13.58	0.3981	0.0294	-0.3374	
-0.926834	-0.0061	0.546194	-149.17	-44.24	-0.56	0.3981	0.0325	-0.3282	
-0.90036	0.147498	-0.01281	-94.92	-59.78	-0.98	0.3876	0.0555	-0.3405	
-1.168638	0.213012	-0.525088	-15.61	-1.68	13.3	0.3805	0.0434	-0.3405	
-1.16876	0.331718	-0.512522	26.46	88.27	18.48	0.3878	0.0449	-0.3313	
-1.113006	0.16897	-0.13359	6.65	48.51	10.57	0.4023	0.0401	-0.3267	
-0.985394	0.044286	0.262056	-26.39	-58.87	-11.55	0.3893	0.0418	-0.3268	
-0.857172	-0.06954	0.509472	-23.66	-79.59	-16.66	0.3876	0.054	-0.3405	
-0.895968	-0.049532	0.450912	3.99	-3.29	1.12	0.3804	0.0465	-0.3436	
-0.996008	0.052704	0.221918	10.08	39.48	8.4	0.379	0.0465	-0.3451	
-1.007964	0.104066	0.09089	-5.39	21.98	7.84	0.3863	0.048	-0.3283	
-1.025532	0.10919	0.041846	-12.32	-16.24	-5.25	0.3963	0.0554	-0.3374	
-1.05408	0.10248	0.098332	-7.63	-9.73	-0.7	0.3963	0.0554	-0.3343	
-1.013698	0.070394	0.139202	5.46	12.6	2.87	0.3891	0.0555	-0.3359	
-0.984296	0.068442	0.187514	0.56	5.04	3.22	0.3935	0.054	-0.3297	
-0.96929	0.06344	0.20374	-5.74	-11.83	-1.05	0.3776	0.0465	-0.3345	
-0.966728	0.066246	0.186416	-10.22	-9.31	-1.26	0.3921	0.0448	-0.3283	
-0.99186	0.069784	0.149816	-2.45	6.23	2.31	0.392	0.0525	-0.3282	
-0.993934	0.081252	0.133956	0.14	9.03	0.98	0.3862	0.0479	-0.339	
-1.012844	0.067588	0.16043	1.05	6.09	0.77	0.3936	0.0433	-0.3282	
-1.029192	0.066978	0.173728	1.61	-2.94	-1.89	0.3803	0.0572	-0.342	
-0.985028	0.068808	0.176778	-5.04	-4.76	-0.7	0.3935	0.0524	-0.3328	
-0.981612	0.069906	0.16226	-4.27	-0.63	1.61	0.389	0.0586	-0.3435	
-0.989664	0.081862	0.14701	-5.18	0.98	2.03	0.3935	0.0524	-0.3328	
-0.986004	0.07686	0.143838	-5.67	-2.45	0.7	0.3891	0.051	-0.3344	
-0.987712	0.073322	0.143472	-2.45	-0.91	-0.42	0.3949	0.057	-0.3267	
-0.998204	0.060268	0.157136	1.12	5.25	0.84	0.3906	0.0509	-0.3359	
-1.003328	0.057706	0.192272	1.96	3.64	0.84	0.3906	0.0556	-0.3206	
-1.01687	0.052582	0.198372	-0.77	-2.31	0.28	0.3891	0.054	-0.3313	
-0.995398	0.071126	0.16836	-4.13	-5.11	0.56	0.3979	0.0524	-0.3236	
-0.99552	0.08479	0.136762	-3.15	-0.77	1.96	0.392	0.0586	-0.3252	
-1.001254	0.09211	0.11834	-1.96	2.52	2.24	0.389	0.0586	-0.345	
-0.99125	0.086498	0.135054	-3.15	-1.82	0.63	0.3776	0.0511	-0.3299	
-0.985638	0.077958	0.159576	-1.61	-3.15	-0.63	0.3949	0.0524	-0.3313	
-0.98454	0.07124799	0.175924	0.42	1.12	-0.28	0.3863	0.0479	-0.3359	
-0.989908	0.063074	0.192882	-1.05	1.54	0.28	0.395	0.0494	-0.3252	
-0.992958	0.064172	0.20191	-1.96	-1.26	0.21	0.3921	0.0494	-0.3267	
-1.00833	0.064538	0.188978	-3.08	-2.8	0.63	0.3834	0.048	-0.3268	
-1.002352	0.074176	0.160308	-2.8	-1.47	1.4	0.3848	0.051	-0.3298	
-0.997594	0.08235	0.139446	-1.26	0.49	1.47	0.3892	0.0495	-0.3237	
-0.995398	0.085644	0.140544	-0.98	1.47	0.77	0.3907	0.0479	-0.3267	
-0.990274	0.081374	0.157868	-1.4	0.63	0.07	0.392	0.057	-0.3328	
-0.997228	0.072834	0.17507	0.84	0.49	-0.42	0.4037	0.0493	-0.3205	
-0.993568	0.070516	0.185806	2.94	2.17	-0.56	0.3949	0.0555	-0.3343	
-1.003694	0.064294	0.18727	3.36	2.73	-0.21	0.3876	0.0617	-0.3328	
-1.004426	0.059414	0.164944	-1.33	0.21	0.21	0.3905	0.0586	-0.3328	
-0.98942	0.071858	0.139446	-5.46	-3.99	0.28	0.382	0.045	-0.3283	
-0.988078	0.079666	0.127002	-4.9	-3.71	0.84	0.3876	0.0617	-0.3221	
-0.993324	0.082716	0.136762	-2.24	-0.98	1.4	0.3905	0.0571	-0.3343	
-0.990152	0.077104	0.16104	-0.63	-1.12	1.26	0.3951	0.0448	-0.3252	
-0.988444	0.068808	0.187148	0.91	-1.68	0.56	0.3906	0.054	-0.3252	
-0.9882	0.06344	0.200202	1.26	-0.28	0.14	0.382	0.0465	-0.3222	
-0.98637	0.06283	0.205082	0.42	1.33	0.42	0.3847	0.0525	-0.3374	
-1.002596	0.069174	0.200446	0.77	1.82	1.19	0.3935	0.0463	-0.3359	
-1.013576	0.074664	0.164212	-1.4	-0.42	1.54	0.3906	0.054	-0.3328	
-0.992104	0.09028	0.129808	-5.11	-4.34	1.05	0.3934	0.057	-0.3343	
-0.987468	0.10187	0.119926	-3.78	-2.73	0.91	0.3877	0.0494	-0.3405	
-0.990518	0.09272	0.13786	-2.45	1.26	0.98	0.3849	0.0449	-0.3298	
-0.984662	0.07808	0.173728	-2.31	-0.21	0.14	0.3963	0.057	-0.3343	
-0.98088	0.068076	0.195078	-0.42	-1.54	-0.42	0.3847	0.0602	-0.3344	
-0.98759	0.065148	0.199104	2.03	0.77	-0.35	0.3862	0.0525	-0.3313	
-0.985638	0.07015	0.196908	0.63	1.61	-0.14	0.3891	0.0494	-0.3374	
-0.990396	0.06771	0.191052	-2.66	-0.91	0	0.3848	0.048	-0.3329	
-0.99735	0.06771	0.178364	-3.57	-0.42	0.35	0.3949	0.0585	-0.3297	
-1.013454	0.078812	0.162626	0.77	3.5	1.19	0.3949	0.0555	-0.3343	
-1.018334	0.088328	0.14579	2.59	3.43	1.05	0.3891	0.0525	-0.3298	
-0.998692	0.090036	0.14091	-1.33	-1.26	-0.21	0.392	0.0525	-0.3298	
-0.984662	0.08845	0.143472	-4.27	-2.87	-1.19	0.3847	0.0587	-0.3344	
-0.98271	0.077348	0.152866	-4.06	-0.56	-0.42	0.3906	0.0525	-0.3298	
-0.981978	0.068564	0.169336	-2.8	-0.77	0	0.3962	0.06	-0.3373	
-0.981978	0.06405	0.184464	-0.91	-1.61	0.42	0.3848	0.0541	-0.3298	
-0.989908	0.06161	0.192882	1.89	-0.35	0.7	0.392	0.0494	-0.3405	
-0.992836	0.066368	0.194834	1.05	0.35	0.77	0.395	0.0432	-0.3328	
-0.994178	0.073566	0.187026	-1.12	-0.91	0.35	0.3875	0.0617	-0.3374	
-0.998326	0.081374	0.167872	-2.52	-0.7	0.21	0.3877	0.0525	-0.3328	
-1.000522	0.088328	0.149938	-1.68	1.82	0.63	0.3876	0.0601	-0.3359	
-1.001498	0.089914	0.144326	0	3.78	0.7	0.3849	0.0464	-0.3298	
-0.99735	0.087718	0.155184	0.07	2.94	0.07	0.389	0.0601	-0.3359	
-0.99125	0.078568	0.170678	-0.7	0.7	-0.77	0.3862	0.0587	-0.3176	
-0.988444	0.070516	0.179462	-0.7	-0.35	-0.91	0.3921	0.0433	-0.3389	
-0.990762	0.06893	0.177998	-0.28	0.07	-0.42	0.3949	0.0494	-0.3343	
-0.992836	0.073688	0.170312	-0.28	-0.14	0	0.3862	0.0525	-0.3313	
-0.996496	0.075274	0.163602	-0.98	-0.7	0.28	0.3949	0.0555	-0.3251	
-0.996008	0.076738	0.16104	-0.91	-0.77	0.14	0.3834	0.0495	-0.3313	
-0.997716	0.077714	0.163236	-0.35	-0.42	0	0.382	0.048	-0.3253	
-0.99491	0.076128	0.16836	0.42	0.28	-0.35	0.3876	0.0571	-0.3313	
-0.991372	0.074664	0.174704	1.33	1.19	-0.49	0.3877	0.0525	-0.3283	
-0.991128	0.074542	0.175924	2.03	1.96	-0.28	0.3905	0.0601	-0.3328	
-0.990518	0.07515199	0.172752	1.89	2.31	-0.14	0.3877	0.054	-0.3313	
-0.991738	0.079544	0.166408	1.54	1.96	0	0.392	0.0601	-0.3221	
-0.994788	0.081008	0.15921	1.05	1.33	-0.21	0.389	0.0647	-0.3282	
-0.996618	0.079544	0.159088	1.26	1.19	-0.49	0.3876	0.0525	-0.3374	
-0.995764	0.076616	0.162382	2.38	2.17	-0.42	0.3934	0.0631	-0.3297	
-0.996008	0.07076	0.167018	2.31	2.24	-0.21	0.3905	0.0571	-0.3298	
-0.994666	0.071736	0.170434	2.1	1.12	-0.28	0.3994	0.0463	-0.3297	
-0.991372	0.072468	0.168482	2.17	1.05	0.07	0.3934	0.0585	-0.3389	
-0.995642	0.07503	0.16104	2.1	1.54	0.56	0.3891	0.0525	-0.3313	
-0.99918	0.074176	0.150792	1.12	0.7	0.84	0.3978	0.0585	-0.3221	
-0.996618	0.077592	0.149694	0.56	-0.98	0.7	0.3906	0.051	-0.3282	
-0.995642	0.081496	0.15433	1.19	-0.77	0.49	0.3963	0.057	-0.3282	
-0.995764	0.082228	0.16043	1.54	0.49	0.49	0.3877	0.051	-0.3267	
-0.995154	0.081008	0.164456	1.4	0	0.28	0.3848	0.0556	-0.3298	
-0.996862	0.07686	0.169946	1.12	-0.7	0.07	0.3934	0.0555	-0.3328	
-0.99491	0.076128	0.170312	1.75	0.07	0.14	0.3876	0.0617	-0.3252	
-0.99125	0.078812	0.164578	2.73	1.54	0.14	0.395	0.0509	-0.3282	
-0.99186	0.082594	0.157624	2.8	2.24	-0.07	0.3949	0.0555	-0.3358	
-0.995398	0.081984	0.15311	2.17	1.54	-0.21	0.3906	0.0586	-0.3221	
-0.994666	0.083936	0.15433	1.68	0.91	-0.42	0.3934	0.0555	-0.3313	
-0.997594	0.080764	0.156648	1.47	0.91	-0.14	0.3936	0.0418	-0.3267	
-0.998082	0.07869	0.160918	1.33	0.63	0.14	0.3934	0.0555	-0.3313	
-0.995398	0.07869	0.161772	1.26	0.14	-0.14	0.3963	0.0585	-0.3343	
-0.997228	0.078446	0.157258	1.4	0.28	-0.14	0.3878	0.0495	-0.3252	
-0.99918	0.0793	0.151036	1.61	0.35	-0.14	0.3934	0.0555	-0.3297	
-1.002474	0.079544	0.148352	0.98	-0.63	0.07	0.3906	0.0556	-0.3252	
-1.001742	0.080276	0.149938	0.28	-2.17	0	0.4021	0.06	-0.3297	
-1.000156	0.08052	0.15616	0.35	-2.8	-0.07	0.3921	0.0494	-0.3267	
-0.996252	0.082472	0.159454	1.19	-1.82	-0.07	0.3964	0.0539	-0.3297	
-0.999302	0.080886	0.160918	1.12	-2.31	-0.21	0.3791	0.045	-0.3238	
-0.998326	0.08052	0.163236	1.33	-3.01	-0.63	0.3964	0.0493	-0.3343	
-0.996252	0.080886	0.16348	1.54	-2.94	-0.77	0.3892	0.0495	-0.3283	
-0.992592	0.078446	0.166164	2.31	-1.89	-0.49	0.3833	0.0526	-0.3329	
-0.988322	0.080154	0.167628	1.89	-2.1	-0.28	0.3877	0.0479	-0.3344	
-0.98454	0.078568	0.174094	1.26	-2.52	-0.21	0.3907	0.0494	-0.3252	
-0.983808	0.077714	0.176534	1.4	-1.54	-0.35	0.3775	0.0588	-0.3344	
-0.98271	0.074908	0.180316	1.68	-0.14	0.07	0.3935	0.0463	-0.3435	
-0.983686	0.074664	0.180194	1.82	0.91	0.49	0.3905	0.0555	-0.3313	
-0.985272	0.077226	0.17568	1.4	1.33	0.56	0.3817	0.0571	-0.3466	
-0.986248	0.080154	0.169946	1.05	1.82	0.63	0.3877	0.0495	-0.3313	
-0.991372	0.084424	0.163724	1.19	3.01	0.63	0.3892	0.051	-0.3313	
-0.994788	0.088084	0.157258	1.05	3.64	0.35	0.3949	0.0509	-0.3435	
-0.997228	0.08784	0.15372	0.42	3.22	0	0.3935	0.0524	-0.3343	
-0.998448	0.08686399	0.152378	0.07	2.38	-0.42	0.4064	0.0568	-0.3403	
-0.997594	0.084912	0.155916	-0.21	2.1	-0.56	0.3979	0.0463	-0.3328	
-0.998692	0.081252	0.160674	-0.49	2.31	-0.35	0.3935	0.054	-0.3313	
-0.997838	0.081618	0.162992	-0.63	2.1	-0.56	0.3935	0.054	-0.3313	
-0.997716	0.080642	0.160796	-0.07	2.1	-0.7	0.3921	0.051	-0.3206	
-0.995642	0.082838	0.15677	0.63	2.73	-0.98	0.3878	0.0449	-0.3283	
-0.996374	0.080154	0.153232	0.14	2.24	-0.84	0.3994	0.0417	-0.3282	
-0.997838	0.078934	0.150914	-0.63	1.12	-0.91	0.382	0.048	-0.3207	
-0.996008	0.078202	0.152256	-0.91	0.42	-0.98	0.3907	0.0433	-0.3313	
-0.99552	0.075518	0.15433	-0.28	1.33	-0.49	0.3978	0.0554	-0.3312	
-0.998814	0.07515199	0.15433	-0.14	1.61	-0.07	0.3893	0.0449	-0.3267	
-0.999668	0.077836	0.152744	-0.42	0.21	-0.28	0.3965	0.0478	-0.3221	
-0.99735	0.078934	0.153598	-0.14	-0.49	-0.35	0.3893	0.0464	-0.3145	
-0.995764	0.078568	0.153354	0.28	0.42	-0.14	0.3963	0.0585	-0.3251	
-0.995764	0.07869	0.152866	0	0.7	0.07	0.3993	0.0493	-0.3343	
-0.994056	0.07747	0.155184	-0.98	-0.07	0.21	0.3934	0.0586	-0.3236	
-0.993446	0.077104	0.157502	-1.26	-0.42	0.28	0.382	0.0496	-0.3222	
-0.994788	0.078446	0.15921	-0.84	0.21	0.49	0.3878	0.0464	-0.3252	
-0.99857	0.07905599	0.155306	-0.7	0.42	0.63	0.3892	0.0479	-0.3267	
-1.000156	0.08357	0.149328	-1.26	-0.63	0.35	0.3921	0.0464	-0.3298	
-0.997716	0.083936	0.14823	-0.91	-0.84	0	0.3906	0.0494	-0.3359	
-0.99613	0.081496	0.151402	-0.35	-0.07	0.14	0.3934	0.0586	-0.3313	
-0.995642	0.07991	0.157014	-0.35	-0.07	0.07	0.3964	0.0509	-0.3282	
-0.9943	0.07747	0.16104	-0.77	-0.84	0.07	0.3891	0.0556	-0.3282	
-0.994544	0.077714	0.160674	-0.77	-0.56	0.07	0.3921	0.0509	-0.3282	
-0.996008	0.081374	0.156282	-0.63	0.07	0.14	0.4008	0.0447	-0.3297	
-0.996984	0.081374	0.151646	-0.56	0.35	0.14	0.3936	0.0448	-0.3252	
-0.995276	0.082106	0.152622	-0.7	-0.28	-0.07	0.3978	0.0539	-0.3267	
-0.995154	0.079666	0.156038	-0.7	-0.56	-0.07	0.3921	0.051	-0.3206	
-0.994666	0.07808	0.158112	-0.56	-0.21	-0.07	0.3906	0.0571	-0.3175	
-0.995032	0.07625	0.158844	-0.49	0.28	0.14	0.395	0.0463	-0.3267	
-0.99491	0.077104	0.158478	-0.91	-0.14	0.21	0.3892	0.0464	-0.3344	
-0.993812	0.079178	0.157258	-1.12	-0.56	0.07	0.3878	0.0495	-0.3252	
-0.996984	0.080764	0.155184	-0.98	-0.28	0.42	0.3935	0.054	-0.3297	
-0.996374	0.081984	0.154696	-0.49	0.07	0.42	0.4038	0.0416	-0.3282	
-0.996374	0.079666	0.15616	-0.42	-0.14	0.35	0.3936	0.0463	-0.3298	
-0.995642	0.07869	0.157502	-0.42	-0.35	0.28	0.3936	0.0479	-0.3191	
-0.995886	0.078934	0.15738	-0.42	-0.35	0.28	0.3994	0.0417	-0.3313	
-0.995398	0.080154	0.15555	-0.56	-0.14	0.28	0.3907	0.0494	-0.3221	
-0.9943	0.080642	0.156648	-0.63	-0.14	0.35	0.3934	0.057	-0.3313	
-0.996008	0.080398	0.157258	-0.56	-0.21	0.28	0.398	0.0402	-0.3282	
-0.996862	0.081008	0.156648	-0.49	-0.07	0.21	0.395	0.054	-0.3221	
-0.996374	0.08052	0.158356	-0.21	0.21	0.21	0.3878	0.048	-0.3222	
-0.994544	0.081252	0.15921	0	0.28	0.21	0.3805	0.048	-0.3253	
-0.9943	0.08174	0.158966	-0.07	0.07	0.14	0.3935	0.0525	-0.3236	
-0.996374	0.08052	0.155184	-0.56	-0.07	0.28	0.392	0.0509	-0.3313	
-0.996252	0.08235	0.15128	-0.98	-0.56	0.14	0.3891	0.0556	-0.3313	
-0.995764	0.082716	0.15189	-1.19	-0.91	0.14	0.3936	0.0463	-0.3252	
-0.995886	0.080276	0.156648	-1.05	-0.28	0.35	0.3964	0.0509	-0.3313	
-0.99735	0.07991	0.161772	-0.77	-0.14	0.35	0.3806	0.0434	-0.3314	
-0.995886	0.080764	0.165554	-0.35	-0.21	0.28	0.3978	0.0478	-0.3358	
-0.995276	0.081374	0.16409	-0.14	-0.21	0.07	0.3906	0.0525	-0.3237	
-0.997228	0.085644	0.156038	0.28	-0.07	-0.14	0.3863	0.0434	-0.3329	
-0.995154	0.084912	0.151768	-0.21	0	-0.07	0.3862	0.051	-0.3405	
-0.995032	0.082472	0.154818	-0.56	-0.07	-0.07	0.3905	0.054	-0.3389	
-0.992592	0.080154	0.158478	-0.77	0	-0.07	0.3921	0.0448	-0.3328	
-0.993446	0.079666	0.161772	-0.49	0.14	-0.07	0.3964	0.0493	-0.3297	
-0.99613	0.07991	0.162748	-0.35	0.35	0	0.4022	0.0493	-0.3282	
-0.996374	0.080276	0.160796	-0.7	-0.07	0	0.3848	0.0434	-0.3405	
-0.995398	0.079666	0.15799	-0.77	-0.21	0.07	0.3948	0.057	-0.3343	
-0.995886	0.080642	0.15616	-0.7	-0.21	0.21	0.3907	0.051	-0.3221	
-0.99552	0.081862	0.155306	-0.42	0.14	0.35	0.3878	0.0418	-0.3313	
-0.995764	0.08174	0.155428	-0.49	0	0.14	0.3921	0.0479	-0.3267	
-0.996618	0.080398	0.15738	-0.49	-0.14	0.07	0.3805	0.0465	-0.3329	
-0.995398	0.08052	0.159698	-0.35	-0.21	0.14	0.392	0.0555	-0.3328	
-0.995154	0.0793	0.162016	-0.42	-0.14	0.07	0.3878	0.048	-0.3222	
-0.995276	0.079544	0.159942	-0.35	0.07	0.21	0.395	0.0463	-0.3343	
-0.995642	0.082716	0.156526	-0.35	0.21	0.28	0.3863	0.0495	-0.3298	
-0.996252	0.083082	0.155306	-0.49	0.14	0.28	0.3892	0.0525	-0.3252	
-0.99613	0.083692	0.156282	-0.35	0	0.21	0.3936	0.0463	-0.3313	
-0.99552	0.082594	0.158966	-0.28	0	0.14	0.3877	0.0525	-0.3267	
-0.995276	0.082228	0.160796	-0.07	0.07	0.07	0.3862	0.0587	-0.3252	
-0.994788	0.081496	0.16043	-0.14	0	0.07	0.3835	0.0419	-0.3329	
-0.994422	0.08235	0.16043	-0.07	0	0	0.3949	0.0555	-0.3282	
-0.995276	0.083692	0.158234	-0.07	0.14	0.14	0.3819	0.0511	-0.3283	
-0.995398	0.083448	0.157746	-0.28	0.14	0.07	0.3893	0.0418	-0.3268	
-0.99491	0.083814	0.15738	-0.28	0	-0.07	0.392	0.0586	-0.3282	
-0.994788	0.082472	0.15799	-0.14	0.21	-0.14	0.3819	0.0526	-0.3252	
-0.994788	0.08235	0.15921	-0.07	0.56	-0.14	0.382	0.0496	-0.3268	
-0.995642	0.081008	0.158112	0	0.49	-0.14	0.3864	0.048	-0.3176	
-0.995032	0.081252	0.159576	0	0.42	-0.14	0.3935	0.0555	-0.3206	
-0.99491	0.080642	0.15799	0.07	0.42	-0.07	0.3934	0.057	-0.3313	
-0.995276	0.08174	0.15738	-0.07	0.35	0.07	0.3905	0.0571	-0.3282	
-0.996008	0.082594	0.155062	-0.28	0.35	0	0.3862	0.054	-0.3374	
-0.997106	0.082594	0.153476	-0.14	0.21	-0.14	0.3907	0.0464	-0.3298	
-0.995154	0.081862	0.15494	0.21	0.56	-0.07	0.3964	0.0539	-0.3297	
-0.994422	0.08235	0.15799	0.35	0.49	0	0.3935	0.0509	-0.3328	
-0.995032	0.079788	0.160552	-0.42	-0.21	0.07	0.3935	0.0509	-0.3252	
-0.994666	0.080276	0.15738	-0.98	-0.98	0	0.3863	0.0495	-0.3298	
-0.993934	0.082838	0.153598	-0.84	-0.49	0	0.3848	0.0526	-0.3329	
-0.996618	0.082716	0.153598	-0.56	0.21	0.42	0.3905	0.057	-0.3374	
-0.997594	0.083204	0.158966	-0.63	-0.14	0.35	0.3804	0.0526	-0.3344	
-0.996374	0.08235	0.162016	-0.42	-0.77	0	0.3806	0.045	-0.3268	
-0.993568	0.08235	0.162016	0.21	-0.28	-0.14	0.3863	0.048	-0.3298	
-0.994666	0.082106	0.159088	0.49	0.49	0.07	0.395	0.0463	-0.3298	
